Acceleration x :
-0.004112455985117412,-0.008425497164053376,-0.01967708916608244,-0.005161883125070017,-0.008658697423507692,-0.018287359832244693,0.007216830335411941,0.014176882031315471,0.03975948946373537,-0.01866184314235579,-0.0016310946334386243,-0.01977358322694199,-0.01525012130299583,-0.0488535860547563,-0.019422660030575932,0.013995155089127364,-0.005439644045458407,0.00652181554226554,-0.01888193161684321,-0.0012121528395597123,-0.00950235887314775,-0.02555844567212043,-0.051003375366632825,-0.0026992022139194884,0.010900802378047955,-0.0042254288254422135,0.006865514413401251,-0.009428174254685291,0.023080378820525948,-0.00250358088958601,0.012362921094661578,0.00758811361650587,-0.03262452301727608,0.00905895164158137,-0.015330769340752157,-0.01606198225021944,-0.024523522266966757,-0.0012114634290985122,-0.00344621119955118,0.015648839438642606,-0.02623085362452548,0.004593117068585706,-0.03627932148106629,-0.0156147213982651,0.010461141452303854,0.0019823227915425376,0.0011648565847866847,-0.009338483252303558,-0.007768664665048709,-0.0009803889113602054,-0.026023722813022322,-0.014941574801987734,-0.019272444754792378,0.02192204823141219,0.0038164638612390262,0.0017327477849612477,-0.010620720494765555,0.0029894966764288256,-0.022752370708866508,-0.017226032477355328,-0.03936487325611524,0.0062432554708560925,-0.02976523372917436,-0.021701596714032347,0.040057577361166476,-0.010689974922250257,0.010716441662423313,-0.024264645285205916,-0.023629251724807544,0.00012926501445899703,0.014598443328076973,0.03176756369464565,-0.02201140016543213,0.010330082968139321,0.0038985438063784384,0.0005676799246233713,0.018815344070480203,0.012959318368521053,-0.03536399216785794,0.007229322778337518,-0.016424819646665128,0.00041445623768577206,0.002815699024836067,-0.0001250607487223533,-0.021277731579041573,0.010031137695827055,0.03444488629525294,0.014557487979892175,-0.01716049524376285,0.00796730392613099,0.03539194418728584,-0.0477373638745863,0.020230887123942373,0.020938405205635353,0.019223975103721022,-0.001322775319649372,0.006928387619982822,0.0004331194821965255,0.009626049184898147,0.021654410271171945,0.004999312403678778,0.029017433869442902,0.004753675927281438,0.007899205984338187,0.006424388757999986,0.011988938966405112,-0.01397998035288183,0.002712840296915965,0.010989438501081894,0.0053610680921352466,-0.03486206139455316,-0.018317979874438606,0.0030166549676461725,0.019665040251973548,-0.010089136652002343,0.012981987999699776,-0.009329580139106838,-0.02421745655905688,-0.0026901915007460048,-0.007407839987531769,-0.02346202138214139,-0.0071842483774613355,0.020561779029143506,0.014222637993848184,0.016149352289707167,-0.011738947402354096,-0.00995786924692802,0.0008148840213718358,-0.04341472403565422,-0.008128536640384118,0.033317348136624785,0.038338352353125806,-0.00652153869351896,0.03491564332887064,-0.0032627663680788828,0.026348778632481116,0.03214236095694359,-0.04085997521865647,-0.00024246896640497652,-0.012172640953259543,0.0058598582019272726,0.01484612420403282,0.005241135502650286,-0.020290494656958615,0.002814410964636772,-0.019797149048908613,0.024929566334187983,-0.028790388214495033,-0.01881829636268085,-0.010238257090887054,0.013978559005708666,0.0008469204873978014,0.008589224371136515,0.03148202475153375,0.01446775930324802,0.005816544787408202,-0.008781629112610243,0.001847415396272845,0.012214781328244134,0.014103490284830331,-0.015864041675458428,-0.01551416422528564,-0.0012956495652950253,-0.04260069510587491,0.005215590640262235,0.022581379789824132,-0.0314760790679371,0.010002821491862414,0.012228974250378086,0.0018077957719375261,0.01905019172268221,-0.01350850065841223,0.025580847016884945,0.015859373491851146,0.0016910135499419992,0.017467644372128416,-0.0025771972545902827,0.001833652874045947,-0.022108003824146,-0.013075377929664681,-0.004943024772332864,-0.013818273285415489,-0.021380344853433778,0.006612062525429064,-0.02823614501535194,-0.02123327823267318,0.010948321039404255,-0.02220054551238427,-0.02443076138301985,0.00600651211826771,-0.004248432958405464,0.008802703866679803,0.029583091228455302,-0.03033615406848257,-0.01808216296621249,0.00507835471870494,0.00010551880377138331,0.002607675447477959,-0.02442885027043521,-0.009862737167737213,-0.03660152547302423,-0.01328884144218755,-0.018061189818487037,0.0025589161041614716,-0.007427171450731111,-0.001501795423164731,-0.00496196978893131,0.040434456982696425,0.01091059197805589,-0.01967520545296138,0.002745767031449941,0.03479394404480699,0.0014209745690000998,-0.0037464236970539784,-0.014536015933600719,-0.038881957710534334,0.032361376285774165,0.0031392084870691178,0.024004594693088438,0.002316550581434421,-0.00044447659552643016,-0.004411005106852098,-0.03445662696539657,-0.03201085266491864,-0.026283446894865482,0.004527520469488808,-0.010283744767005555,0.002699832116170728,-0.00778268405724666,0.003682326076943718,0.0007949693206326629,-0.015025743670813971,0.04662037907601334,-0.0033956894428221855,-0.0014047851963689027,-0.024724782743398097,-0.009693439307215158,0.0035165590368793345,-0.0036323971190256998,-0.02753469591484172,-0.018296085419750304,0.01825314246881171,0.018665554628026437,-0.01909047350072069,0.02283168758935062,-0.020422941380611154,-0.028167646356404293,-0.009624597013328457,0.004491010398858634,-0.039347068171366115,0.014903022615087684,0.004408091345147113,-0.001868037488371192,-0.04295372349435929,0.016434070390556006,-0.023504138924239668,-0.00912509052172827,-0.0012681971579608215,-0.006958324958875891,-0.01777333219576976,-0.024489551498705985,0.002570751530783309,-0.0035417165964332525,-0.019966228855366353,0.0038756683938117927,-0.03481794369161362,-0.021358231203036846,-0.014049065817007794,-0.020371245442703367,0.003663091082689061,-0.010932633704860927,-0.005120350675683585,-0.01774809957310208,-0.020151273415936154,-0.007679614695950294,-0.026842016925965433,-0.022250741329661105,-0.0012362693622031656,-0.016277320342708845,-0.025469401982065754,0.007263242743426235,-0.010587505495041841,0.014434545445168622,0.02374058944506105,-0.001234609125956922,-0.03980954371711705,-0.006552223809438874,-0.01972950433990918,-0.010130940241913777,-0.06429833488070871,-0.011131631442258367,-0.010153114399459446,0.011717211636225692,-0.020061709136073476,-0.014964407688303616,0.026910015544702764,-0.014618309080816107,-0.03626492306295549,0.03284199712628033,0.015287821823236299,-0.003021350836128113,-0.04613044926775619,-0.024027432145981582,0.004927181032518274,0.009995598308276385,-0.021771508728642947,-0.01706304562661098,-0.03829145588792162,-0.013075331122247734,-0.014605770401295739,-0.006077847192517947,-0.010873308157990686,-0.013231470390385948,-0.020450576022919265,0.003971058484617969,-0.02308854842724977,-0.019583908157027326,0.015630311693041583,-0.01665709517422365,-0.014769805281521985,0.01627394221717841,0.03940220959181897,0.015037593938811914,0.011833192423911532,-0.03273307740868767,0.010304207599721848,0.004216854505808442,-0.008933053960546385,0.0002692230798581477,-0.021913170805212576,0.021110722715372683,0.006160007908992702,-0.014678238557529403,0.009835097958851837,-0.015734511853032745,0.0185041512379481,-0.01638266100537148,0.0032222285763025865,-0.017870135642238893,-0.016746613788313696,-0.029224619479873214,-0.020518636290449647,-0.03505947681292891,0.00906525180573808,-0.003091903884022031,0.027335876273957546,-0.02213284828774631,-0.009890530498605221,0.0035287363859737523,0.009054175572586245,0.001213993312902312,-0.019771895876643245,-0.016180688142887083,-0.007116036842059111,-0.014040337946213548,-0.0038827020644414,-0.007125877245239098,0.015757315056596416,-0.006092024131631478,-0.008795697595513775,-0.022698688309849238,-0.02137272551927017,0.0024765918471384794,-0.016150782770034858,0.0052779432570358034,0.005245369290595409,-0.009208605228361557,-0.020033900963829364,-0.013284056810860055,-0.0063913621295883785,0.04223207642261404,-0.016625501309428362,0.007834999908017925,-0.025026829863316377,-0.011835731440869858,-0.031656630116479935,-0.014826742508483584,-0.0008018021332154603,-0.006447257035289658,-0.014821674749365774,-0.03203058256198419,-0.03786929180296138,-0.0018348083607990701,-0.019509957004827445,0.020325753200007603,0.0195749576655915,-0.01608221561242826,-0.000020862889858017297,0.015094283428956986,-0.035204045515926555,-0.030825168277998454,-0.04447274062202777,0.016976616302039473,0.01616477133783628,0.035818062928155994,-0.02428144343966851,-0.012779510530427796,-0.007987446527616703,-0.007300027664925437,-0.023500752807199023,-0.016229220584395805,0.00939862564568175,0.015933031241461868,-0.017341335128317585,-0.02549111605695216,0.0026778688774124018,0.023234457420674152,0.016405427676317048,-0.03938525845701806,0.016129532202740663,0.0031054780349368226,-0.0067213207405613495,-0.019963397577463182,-0.002714064995855733,-0.017659891566686563,-0.0038518502684513805,0.016421099027839954,-0.03154079203433357,0.004175319773133378,-0.026941887970711103,-0.048106544246850534,0.0028711635306302922,-0.01342344016537536,-0.023956787195720242,0.0035264351164441903,-0.024326563506317324,-0.027991250893170942,0.0007046758868160395,-0.007179149223124841,-0.004703301442669181,-0.020301061716745606,-0.014685663812159327,-0.0000035535819912183797,-0.004092498900833016,0.0052938543538650264,-0.020781778455374295,-0.006742620969383279,-0.0038411462113464947,0.0037634530344905215,-0.013572501238755648,0.010490437187091447,0.005806841952368268,-0.041064914073073305,-0.03509827901993412,-0.026226620407402514,-0.0001406908672634472,-0.007278883841374772,-0.023168520611571146,-0.0015690715237557014,0.012987329753453377,-0.011251540628034854,-0.0014730700824184169,0.028779145301273092,-0.004045452023990219,-0.0037395367277189505,-0.0096483957307355,-0.0067528238446335305,0.008044550434648409,0.013733646617218619,0.001345860509359045,0.00022758590244393415,-0.061118955925921904,-0.021116978926223235,-0.008448634869401575,-0.03593405170735205,0.0036361782449996095,-0.005646109278325457,-0.009391228932159719,-0.0015542582606416543,-0.04814290333501994,-0.01928521518810885,-0.013684578744525788,-0.019033158389490563,0.010230785028840181,-0.00034251412974699633,-0.011628439657518174,-0.00161202717548731,-0.006298251902480842,0.01757247015320463,0.00957666793084063,-0.0070699692106281865,-0.013594834084861212,0.011234564377058996,0.007293718367614201,0.011077921643777517,-0.014038920023973332,-0.0027661836275714446,-0.02721005793720251,0.019725773446285164,-0.00743942471917253,-0.0005579259653239205,-0.015516342482640175,0.006395079894302762,0.02146988401712151,-0.0050993895152234466,-0.021425220608199014,0.003564462717781134,0.013325707420433172,0.0010277988310954242,-0.005819144311515265

Acceleration y :
0.02191471659161616,0.028343763258424585,0.01576069318212685,0.04555301013940479,-0.002606459310870559,0.004552110917228856,0.008562939152409672,-0.01711085198233486,-0.01679666918333969,-0.008394434734687092,0.014922921475511974,0.006845995720534119,-0.0007097379377122706,0.013181365904654376,0.012248923343152272,-0.006711754332017153,0.0004953504424976927,-0.020932416139554696,-0.011032996798306704,0.005146413273768849,-0.018167352465057046,0.05181066859494894,0.027962632153462615,-0.010870028213871409,-0.005988101962031214,-0.05335595267503522,-0.004589503478915139,-0.00012765151427693126,0.006627176183703704,0.00470883356561244,0.04601124333487824,0.02813548623602837,0.013804871522792382,-0.004163141853216802,0.027563632031669838,-0.006092290134757058,-0.025201745755516456,0.012380396244203439,0.016416063234762985,0.0024543118020825204,0.007142221596086165,-0.008567414398127584,-0.01314016281965305,-0.008624936717801028,-0.03781087158003356,0.010534565164829836,0.002171372383077687,-0.0028608935837764874,0.013902426171221303,0.022988725331565363,0.013367128559498814,0.033891195651958694,-0.019015296222525648,0.005662960519248736,0.03281386472705053,0.015810425491811473,-0.020326333155320026,0.003644588453262986,0.020361883959313855,-0.0074307739093695995,-0.01376388192527811,0.007033587860394618,-0.015612225763790774,0.02959934367693495,-0.011878716632648138,-0.0018109706847797497,-0.00507840380941052,-0.011650805611308896,0.01665711914875428,-0.019609711601852903,-0.004359557191171916,0.0012463503669227064,-0.016678496438567527,-0.006865291792759671,-0.012078850306139793,0.002532535843545338,-0.013395526961854193,-0.008568192999550956,0.011553036333748604,-0.019511881817143875,0.01681887759021483,0.03222404332445003,0.020017685047967824,-0.006693458911034395,-0.016212251183285842,-0.02871501000690041,-0.0034033807005776906,-0.019019351343135347,-0.006057107511055073,-0.003429861425893614,-0.02473095218928065,0.006108069371667807,-0.009434045160579262,0.024545722682331687,-0.00024388353506501516,-0.014572486902913078,0.018738372127420733,0.03088357936777174,-0.015332352801418163,-0.0030924376027396646,0.004227812293362512,0.006624366026220377,0.004313060016067174,-0.022487150751287117,-0.01095235561041627,0.00574263758851448,0.032354521853302134,0.00560987405856431,0.022378936569881623,0.04821853498765267,0.01876491649940726,0.018591961952141717,0.02938017765105469,-0.03780786905548302,-0.013169643500819802,0.02149854613931384,0.001168799752900668,-0.017356183354288804,0.00626936316389183,0.00601380836708995,0.03422272231139941,-0.007324833312619012,-0.0338968559244764,0.04547979877272155,-0.012445088661002227,-0.02547370826442493,0.002920292481294018,0.007648601928111748,0.010003126310894731,-0.02527804641171824,0.006409833363795769,0.015619125862035434,-0.026487189306039362,0.005231634738654247,-0.038322748358617535,-0.008944006896112114,-0.003536396819332731,0.018046971780178136,0.017372570516797713,-0.028023269449651705,-0.026975404364534186,-0.0054456382489384845,0.004525437539434642,-0.024119558275688905,0.011823930263577495,0.0042946684115508105,-0.024087562552094457,0.010314454999100416,-0.010662836895219515,0.000526699174852547,-0.0036248174570020636,-0.02044868317664368,0.002848047516524093,0.04797193981544114,0.00997514118378167,-0.001996575935414148,0.040434055123897264,0.009299948190068243,-0.004633086321492738,-0.0277653925483115,-0.010081607507739681,0.0036460203606460705,0.00066746955585877,0.007634342219785321,0.01172752410933026,0.007085911702676094,-0.020949177761399186,-0.016594013617554446,0.034695397307467644,0.008313000103997183,-0.007461603443295462,0.02367116833750624,-0.006207919295993633,0.010054080179997253,-0.0031347281039517836,-0.01025305165957543,-0.0020651660686125976,0.011592256382573395,-0.018021388672705505,-0.008051125735085225,-0.00030349597358417664,-0.000354729795278763,0.007144458648122963,-0.002793519159068819,0.0151662492616917,0.008143145691871178,0.005009184202077449,0.008678978734777774,0.020338222239224706,0.000861693150785868,0.05089993325846735,0.021792441918817348,-0.033572759086242875,-0.0031376829648521376,-0.022674558515590613,0.026850181966111993,0.0012902932555763982,0.010375953095103613,0.024785563886770976,0.021799800958076956,0.0029415381965998675,-0.018591131976724136,0.013457818500656867,0.0010823387476993956,0.029906217669020404,0.021434047802048734,-0.00039104293226446314,0.0108585055977921,-0.0025794434397816072,0.017139147636701817,0.023347078349138607,0.014918167668581008,0.004409744160705304,-0.0008845560766178095,-0.014975045530038186,-0.0013924547242306288,-0.02550558069043327,0.01075550758926547,0.009542914074999862,0.006923366097459802,0.027654931610892525,0.007873538966008346,0.018790040665864944,-0.0007781681693537393,-0.01940144827918848,0.0022736885445367077,-0.028695727634406646,0.0018002827534008246,-0.037169918211817275,-0.02734298643475631,-0.008567148395002003,-0.0104113200943626,-0.0026470747344603295,-0.012101752832758939,-0.009294288488372694,-0.013259066216787322,-0.012067110777640482,-0.00017091071852919413,0.0028232764035710715,0.010657554506970337,0.05831302252656314,0.010342629639169898,0.019483703752141444,0.008529036311985691,-0.010885649333044421,-0.024279687590710818,0.03722626292537898,0.0005349537627251266,0.0032634824644759645,0.01002510182232945,0.016651876718056156,-0.01684662753859884,0.035703617652074894,0.012441437682480318,-0.01590247398970532,0.015031296628765994,0.010040773173852357,0.03121252362777013,-0.011539374276221497,-0.009213730640517314,-0.014322529588191536,-0.019469369266112334,-0.04712122300392948,0.00889720632903045,0.051048502283147536,0.003662691507178533,0.01605003151752171,0.01141091417451971,0.015731892920972313,-0.01069023750044289,0.025712654419720638,0.01963532553372206,0.007553697606961941,0.011999434102600208,0.0011603032077859097,0.025775963163608685,0.00716602259678184,-0.0025103128807051687,-0.0018744622344638627,0.001165339714390575,-0.017901210058870493,0.015093607575522036,0.0007201721386420104,-0.004410108630653121,0.048327123628393746,-0.011280128543346655,-0.004693230141926324,0.005396863778834813,0.02831240228906972,0.00020041920943795048,0.02096577270317357,0.010647824272466824,-0.0088434748393076,-0.008632705036547849,-0.015784996506321477,-0.025959450521331744,0.029980180237663443,0.003872883637914492,0.021738741253491026,-0.004098146900674328,0.020593875217437742,-0.008586329161151662,0.022634032425668554,-0.023308404006296767,0.012905360833223675,0.02041057280609384,0.001730689114848792,0.01483558454370941,-0.014523635942640247,-0.016247869344294303,0.02475642684054328,0.01482693658801727,0.012341280085011385,0.019018860436079556,-0.003920854105008766,-0.015297039459442021,-0.012528976685326779,-0.0006759904322680085,-0.024395674086618236,-0.0007317723865347943,0.014739135006978175,0.022114739525609182,0.00559210550643329,0.025279626447451298,0.025607917686901054,-0.034386121295741756,0.022982886962534393,0.008105055870919023,0.011458475076715694,0.0170750386001484,0.0018829980236019764,0.017477985386340877,0.0007357463790453038,0.04592626389858778,0.01106774730963516,0.013153146740456577,0.037240350816235876,-0.0004201592148361669,0.012262220074498327,-0.011812800373142817,0.017344987248483813,0.020048194350663105,0.022633217291627077,0.020841324339597483,0.02591543784966925,0.020128225900488905,0.015207685242133447,-0.013851552217220887,0.016704215401713737,-0.03236596112934639,-0.002876067463788786,-0.009991559170687106,0.014861200758867198,0.02982107611923711,0.006571293265267741,0.03496473631773842,-0.000633237779166302,0.0498911489415681,0.0181368385957845,0.0060546427009772735,-0.0005224607489773916,0.02569457305704709,0.029735306665080133,-0.0013484750175477528,-0.008175360611174255,0.02540563429716276,-0.0035986783687476415,0.019343676510232034,0.019608145265851633,0.013580047507683048,0.003387913132565154,0.03694671989821363,0.0152698306504637,0.030055873539089225,0.00567532623965526,0.011159133653825848,-0.031939264716452455,0.006613921122375177,0.010527862571051809,0.011256310417986241,0.03308244568549562,-0.0019054815667572255,0.020970535643259063,0.020808390184375455,0.007125292723349412,0.033049979604443065,-0.0267620333252009,0.02603992502915207,0.021317842110432684,0.002638739018488559,0.01176426336505683,0.027806354746362193,-0.012235636886605061,-0.0055888552450662245,-0.013071229194221086,0.042817520760907786,-0.022425255363062023,0.006828630168846575,-0.019001910442922963,0.005288950420706533,0.005178448384092189,0.006750689540585154,0.01156514118842897,-0.025456802795396652,-0.01799063049154938,0.008281003809580578,0.022313639081595463,0.016753228475479408,0.008073662364701159,0.01554507310349145,-0.012573402632231591,-0.0010501693514634097,0.03438056148792384,0.018895806020213058,0.019333958833815994,0.00910152698305028,0.00032535878331909767,0.002300183397701039,0.017168127136013935,-0.010770988286187638,-0.02127354402769124,0.002564173090824624,-0.016460978947079274,-0.013531065258313902,0.000339986564908213,-0.0006944546025511954,0.003567528603591199,0.04273264178931713,0.0016865330241191258,-0.007151930139347677,0.0051510226626938676,-0.009555516686601912,-0.007276333407973288,0.006858730762876803,0.02144315812368877,0.006930677187658147,0.01363499713189085,-0.01606252567291376,0.016320652594359126,0.007335235975624527,0.02764907269226387,0.02253602226115763,0.01862279205688974,-0.0028481611101335144,0.018146332509914646,-0.01567797990980325,0.014023246389161794,0.008329108134470879,-0.004743290388940659,0.027744623754918575,-0.024627736126689705,-0.002312741057058156,0.01544733008375042,-0.019608060784172265,-0.006009791491564828,0.011103445385745725,0.009312413233530242,0.027223415175697298,-0.014032877300609833,-0.005405032814736478,-0.00867158601701085,0.004512589759715775,-0.0014937686646859219,-0.025257942055317107,0.005926886993818334,-0.0018294407773428245,0.014853734405041905,-0.003026202539059159,-0.029202560628403443,-0.021455040357727558,-0.019186166127270553,-0.00012715181299226969,-0.010444353572640102,0.03190816632529022,-0.015393292633350937,0.006736132433914462,0.0016158608170997466,0.017866118195891612,-0.00885215304857411,0.010290622032363899,0.02949362513000378,0.03187924162490526,-0.014457841839076717,0.02646437011945527,-0.012901300004392395,0.01833941196317901,-0.01752070914157084,-0.0005587961837036345,0.018173559585202018,-0.004520728827454149,-0.008868263933158595,-0.015311427602753974,-0.006155375116359209,0.012824638588586821,0.04121701762855518,-0.013820179831422865,-0.019434857358445877,0.010571616089454618,-0.017826729183708083,-0.0011337102445631898

Acceleration z :
-0.04122147917454131,-0.03883056088343728,-0.021778349461383184,-0.03151692025169032,-0.019686804559209847,-0.0024724191371642518,-0.00037774338248400453,-0.0005236963648909295,-0.0394334449802991,0.014285913630051071,-0.017144894674187526,-0.009803916227654553,-0.005018040507857222,-0.004572924805572256,-0.014603206268162465,-0.010265436217113165,-0.029125796464609447,0.021304420939856208,-0.007426018389972159,-0.019701696167665067,0.00452816064653889,-0.05787215602442156,-0.03601966818117071,-0.002800228602712741,-0.027190195609396322,0.004392303545903997,-0.010269062079460127,-0.021945429106999655,-0.024635661421529946,-0.014761128784721949,-0.0026349821524563593,-0.021950249129300936,-0.014618764596898108,-0.017315673247387166,-0.03871570233211387,-0.007589432215690612,-0.03661772768915398,-0.029144530847831626,-0.005057523134874646,-0.01748205877325963,-0.03393774734057951,-0.0200267474205466,-0.03873076290392782,-0.012395453391084447,-0.020027560271299445,-0.03424278785189381,-0.027056095784774515,0.011851755560486343,-0.01971252580564469,-0.005049070400360506,-0.012085702455323189,-0.017031666390947064,-0.002662452968805155,-0.020017701030988246,-0.002660662014284753,-0.0028150645560075646,-0.01493451829847181,-0.031851906093407885,-0.021828910604841073,-0.041424093641131185,-0.012086233319930034,0.0019786816597028517,-0.026894970955909227,-0.004749376209377078,-0.027497900718543678,-0.036629036817746236,-0.007598449493318912,-0.029138717594975605,-0.007289551936683711,0.011714077822578838,-0.03182736987377284,-0.03436832762743579,-0.009970325728057651,-0.012507164429029216,-0.0005379007748208095,-0.005028637250396423,-0.027330690925475208,-0.029430816426326053,-0.004886696612613741,-0.060994256400596344,-0.019693035653885454,-0.012213624842552234,-0.024485626525548285,-0.007574670183865237,0.006945040214795153,-0.005318642876893864,-0.00771819827806903,-0.02461988161379704,-0.002617031222645892,-0.027153455212025435,-0.020118864417099393,-0.026397093019925523,-0.017413788443175142,-0.02714059573045233,-0.012332112681155558,-0.04136570995082147,-0.017274385680706474,-0.004851165787395439,-0.005298923254627152,-0.024755600290058646,-0.010094145045615732,-0.04406498180504422,-0.027004109869210514,-0.022216628997505174,-0.017436503740126497,-0.01728206552201882,-0.016984200245229293,0.004711881470524531,-0.007558379490301013,-0.009958957233960973,-0.03375939281570026,-0.012059218590485397,-0.048423807202209714,-0.03704574155958835,-0.024479685408528892,-0.03420912076102104,-0.026869847931095862,-0.021925845340406522,-0.026868532756844067,-0.03165858004497131,0.0049993906063144095,-0.0123657489476318,-0.04154698023528326,0.014259890989516862,-0.03916001203351188,-0.031823495132965035,-0.000252372302727872,-0.00743596097031841,-0.002347105692607874,-0.019845315022591965,-0.007739094935625326,0.016190666114207122,-0.05353797187816817,0.016196048967156092,-0.020007334900600835,-0.02958298619717825,0.011266086318262387,0.0072243754626950245,0.02382996877854457,-0.0028014358915766932,-0.03435603440144332,-0.048869071318255734,-0.03674826786679914,-0.026879218547639902,-0.0198500665462343,0.014262794191011926,0.013823383285372982,-0.00981759769313503,-0.027020828108571003,-0.029109089641692114,-0.0029219364491087614,-0.022225771285186054,-0.024477472901844884,-0.0029251587401900904,-0.014893697664316276,0.0066531697123078624,-0.016995131489553023,-0.05111711967310402,-0.03690638788782526,-0.00787512813489593,-0.027023677652783226,-0.019692547030118294,-0.00517787014124624,-0.05784605803536251,-0.00038447134217167326,-0.015052823473984608,-0.021934115411830133,-0.039138809415278954,-0.04617085890995804,-0.0027757018016432993,0.0017100359129428398,-0.005024976567897829,-0.037056934240460394,-0.005337082145060412,0.0163624881503114,-0.020149202473147304,-0.029267577272187918,-0.01011690030011814,-0.0026368732862654723,-0.03674954879172146,-0.02447896388932131,-0.01490196773573989,-0.03660134052664507,-0.012507145021075848,-0.026718392829585352,-0.009957791615114547,0.018921332045469898,-0.0074155055582901695,-0.007266531820700038,-0.002923981419489428,-0.03405164691067766,-0.022076761585799975,-0.024914195235120132,-0.029095661621249744,-0.0075474762162630205,-0.02925293225890491,0.0018818119978634058,-0.0003628402505564736,-0.007244709860425792,-0.014724690923094749,0.005028721732075791,-0.01726523311822675,-0.028929949665523598,-0.015015662951505509,-0.03402014666071627,-0.01472999728587456,-0.00036493623816750184,-0.03208943889304064,-0.0005124275149371897,-0.012036540967796463,-0.0075523150756955145,-0.037039069790206845,-0.017275310412602267,-0.012344254068454028,-0.024461836941295768,-0.01458846878168988,-0.01757563593289233,-0.024465328089613467,-0.019983211956208106,-0.03675125669161789,-0.0051829761454486286,-0.038855731857311906,-0.02179027507790597,0.012034675520984455,-0.007410474902612622,-0.031800892858800944,-0.014889607152732787,-0.036741112040227744,-0.0005340861487215079,-0.024620893110660836,-0.012353613268554909,-0.027016435061243828,-0.017739123965491307,-0.019838791666971518,0.016526290135097224,-0.050958969969325696,0.023858169676433318,0.009344076738628792,-0.014744888894329778,0.016826088215713388,-0.02672323340148432,-0.022238507469173052,-0.01999411465942394,-0.03406365472559118,-0.010418102603242732,-0.019842415246029848,-0.014457894354715244,0.0021446283660414337,-0.02209076956155477,-0.007134875685736187,-0.012523499075899598,-0.022258979435043874,-0.00744865890922083,-0.036479887837753626,-0.04171463755292352,-0.007451980523357633,-0.022116134614963083,-0.00760498369456036,-0.05848043324903119,-0.005208362319276784,-0.04875234960340895,0.004363155939466378,-0.0031130074646105637,0.006910049387338222,-0.01733456974410219,-0.03155585717272479,-0.02437042091435287,-0.0510012701745145,-0.026910278122895395,-0.02466078216305468,-0.041418563516065474,-0.010145972272619838,0.03369957293684128,-0.021966595192614475,-0.014936433977633714,-0.00027058117280093935,-0.026904090410703792,-0.007749408550374209,-0.005197464182638213,0.016503947014192815,-0.0415493320225738,0.011873269847617484,-0.0006966506980981648,0.0016965589445004296,-0.026890632707509212,-0.03661295561591396,-0.010282532340742181,-0.029143503367947413,-0.04620034529934637,-0.031376057326141744,-0.04125889314205851,0.02398126404985087,-0.000716835968540181,-0.01732603595284163,-0.048748148352326826,-0.0032554424343819843,0.006925840611514285,-0.026738686698942908,0.009025846239711973,-0.017606303924147505,-0.0051908814615133445,-0.024188150549470447,-0.053365172594529574,-0.029433339460263958,-0.03198064703961136,-0.02434689847487025,-0.002798620025871787,-0.04110104483237956,-0.01730139127699658,-0.031808592108066656,-0.010105539797531673,-0.024313857005082536,-0.014739938724576495,-0.014743579428299562,0.006652596606861334,-0.02192644812860526,0.026117015703220385,0.004265801078792719,-0.03673952972120605,-0.05348352914403658,-0.010247422211454249,-0.010391831084247677,-0.02221084314411273,-0.03433090224347543,-0.002453269766233279,0.01625435730894096,0.006825656756226089,0.01191060732496553,-0.010077551245485665,-0.028924867065029683,-0.0344680571082863,-0.029241803510114548,-0.010094955613079945,-0.012348972484411205,-0.024323332652903627,-0.0005301830451877322,-0.0195364454362425,-0.029401672530232462,0.026262926979933397,-0.01488440011300845,0.0023235694106879235,-0.012189005282882135,-0.03149841419733129,-0.017436814267380394,-0.043923838034993966,0.006500684847624507,-0.06307948344312608,-0.019836122502561192,-0.012352249003597535,-0.03449395188465714,-0.000522255181647779,-0.012347085346357197,-0.0026192323128867425,-0.029247765176731624,-0.04391063149354886,-0.02446254476077156,-0.0005171996238535939,-0.019824395532149354,-0.027009263251652007,-0.027001296857616396,-0.007546971038653282,-0.02430926074506715,-0.03898421250861138,-0.007555092696315841,-0.019967228935786986,-0.010085878399125068,-0.026993074735254047,0.01670290593568352,-0.019658217785542362,0.006819151666914694,-0.01786862638845341,-0.048551963626523496,-0.007707949737046147,-0.019681534729048142,-0.0027669787828373954,-0.03388432523646624,-0.0005162080700889419,-0.03912489048778079,-0.027002730762877035,-0.014724309613893273,-0.04106332947076298,-0.024298052081174682,-0.026994748385821003,-0.029087526263855395,-0.015026791700295871,-0.007697391810413682,0.023732200642628595,-0.007544385785100166,-0.044059680008841674,-0.0365696393472841,-0.0000596666487859693,-0.024004966869135384,0.004275240479406784,-0.03927590263129677,-0.05634101006754208,-0.028803284228686242,-0.05828064549376722,-0.0026188655596502937,-0.005159402902793954,-0.021766001436463556,-0.05333659495401662,0.0045708335985968004,0.001876470529520884,-0.053481679680244996,-0.014719051200174726,-0.014871078265487449,-0.005293618604313815,0.009215749638489796,-0.007086593264332623,-0.029384467950393445,-0.022199620780488476,-0.048688979210727845,0.0047211910090976745,-0.002763819853015593,-0.0196774910248816,0.011741933943884213,0.01622003719751956,-0.009821769261464941,-0.0389986565924948,-0.0026319978942148737,-0.00487292952380958,-0.015050501369446282,0.004557938155227748,-0.01713055562158115,0.004417320968618151,-0.03657739796205423,-0.002608673530021042,-0.01713067549423431,-0.034191473223187496,-0.055884457372501486,-0.04855727912245784,-0.014888858234061626,-0.02715353741041617,0.002177812541368621,-0.02700768549920758,-0.017141058749286456,-0.007414516894312691,-0.03688476971106138,-0.04630538114297669,-0.01218317033878411,-0.019974297997390384,-0.01728408166588051,-0.03644200579606695,-0.050950339138298294,-0.002470200066025427,-0.04885677809226326,-0.04615524121571798,-0.04839475463766139,-0.017422091622283913,-0.02461333542529028,-0.024467474380927157,-0.017431853822828268,-0.015189714618958532,0.01175020287366351,-0.031795013390574604,-0.02192315790968714,0.016678604894777526,0.0020029635780665555,-0.01266308335981448,0.006643319605151191,0.021308017119450958,-0.031205936340067998,-0.017291442988428753,-0.0198300512380898,-0.02895483751160791,0.011597472555452258,-0.05095980565296486,-0.024464334859058724,-0.039276838779635725,-0.009787195705005433,-0.007386031726989313,-0.04868886961287353,-0.031630552677018565,-0.027002287804882508,-0.015030327372741884,0.002184259834936529,-0.024448233107628763,0.002183215373093117,-0.029537603552336804,0.00936372900388087,-0.055729344442603176,-0.0026059658351150574,0.0163977044525207,-0.04869650493005756,0.004420008113926451,-0.017136396273900754,-0.01982334065280156,-0.009941907917748903,-0.024608629567420576,-0.03418027369244955,-0.017429677848762367,0.0020204422952469028,-0.012498123747692443,-0.03913769060384947,-0.0026334726132598006,-0.022084823877958112,0.00185147750945398,-0.012509016176109434,-0.03195663597636157,-0.03898842745942529

Rotation alpha :
0.008796797882670765,0.008878148728429392,0.008891067356765538,0.008890914537714026,0.009021334078746111,0.009189131992433318,0.009289239883573526,0.00930842283811963,0.009346909486540067,0.009315483979919268,0.009385081666661554,0.009396092502974357,0.00939633595480804,0.009503085702964886,0.009540639784250774,0.009459070270821612,0.009541650577870393,0.009509917124630576,0.009610833150525069,0.009711493834326627,0.00978033372251952,0.00977290754488986,0.009865517775818452,0.009896865968121105,0.009978891521161864,0.010015731396301943,0.009964729093371292,0.009945701211002505,0.009931943874669218,0.009963035868128942,0.010004932421597565,0.010011355901345399,0.010004446610111403,0.010111360832723302,0.01015386522238897,0.01024745812704605,0.010297424594203413,0.010328477781622044,0.01045377496204309,0.01037833106740629,0.010489464778455821,0.010634142386097105,0.010646189877320186,0.010652104205123542,0.010683541099857573,0.010739372322320969,0.010706753851506316,0.010837767581589018,0.010997920022494728,0.010996950498143613,0.010996271131118347,0.011052428090402532,0.011095157312978363,0.011113570349650355,0.011099773349601405,0.011130612455304806,0.011230642412416255,0.011262277990294157,0.011336904862910968,0.011341133526380397,0.01140192772626437,0.011482463746620753,0.011531528406248324,0.011660692422032918,0.011723264239800546,0.0118420143965005,0.012042183814964821,0.012134207914510056,0.012181987313471988,0.012218687225848237,0.012254696726224677,0.012284639963527673,0.01230757038073388,0.012336818399050958,0.012461481028709366,0.012504294825691072,0.012428855365330307,0.012464120835170771,0.012455273637766835,0.012484062122617672,0.012462866480620255,0.012580115574253006,0.012653739196047753,0.012771192640641527,0.012869412425809261,0.012948708777136879,0.013023060450188447,0.013089529949831943,0.01312455366126075,0.01317252708552057,0.013176901674179318,0.013186470042915458,0.013332030559808904,0.013379794922044861,0.013328006994000415,0.013370433793270036,0.013474840444143831,0.013509169633710136,0.013575613451211535,0.013598843801015876,0.013565157048386076,0.013556210542632082,0.013603646185913792,0.013670608338557972,0.013675492922517019,0.013810252181071712,0.014030895120234595,0.014091120142248639,0.014087613754396695,0.014178946618668451,0.014195345923984998,0.014241847850107956,0.014301237975305374,0.014348285182646515,0.014295844954900012,0.014373946351322569,0.014357379067891217,0.014379074341186338,0.014363599528462055,0.014316025041219442,0.014393930240729547,0.014589363202975016,0.014618168847692174,0.014590019963785483,0.014599095771258492,0.014589811092239398,0.014680817017915489,0.014734048252660493,0.014810602745061166,0.014786894398228306,0.014847384538519127,0.014932982413709292,0.014966954304380588,0.014981464978973374,0.01495216021703251,0.014988090883297438,0.014946424948915722,0.015023572995875199,0.015000511623784315,0.01508395440116514,0.015140125618206884,0.01522371843621324,0.015275730497318526,0.01533522897785579,0.015299623876083551,0.015364749889795982,0.01539071878653092,0.015461072464663795,0.015468029100949575,0.01569603263199114,0.01561551158774127,0.015667087646261933,0.01566330764989666,0.01571960669305769,0.015758267792688626,0.015753367402770467,0.015804645977708375,0.015781091967052525,0.015744600478235615,0.015657601105315735,0.015701731229305196,0.015777617411218626,0.015828586416084645,0.015960762408838255,0.015992735749995286,0.01598726107678881,0.016038105916295595,0.016044230406017664,0.016024734135972638,0.016068983241497536,0.016182872179471224,0.01619523170163155,0.0163101592021093,0.016386019565968836,0.01639828362273544,0.016373411416357297,0.016403788646289035,0.016454196949959855,0.01646700679497586,0.016535114950831282,0.016502782667849773,0.016577708715957734,0.01651422414266789,0.016513343111152823,0.016537101020374794,0.016580453900316545,0.016617690478553642,0.016598012156970664,0.016628069616380897,0.016563283514937664,0.01661829685677458,0.01667289233466822,0.01677203215703514,0.016774981686544094,0.016862203664185213,0.01696180368375295,0.016965161069402306,0.017057786436639653,0.017067456721231618,0.017090156615150894,0.01712577641486763,0.017124025484166146,0.017121364576055488,0.017220511862588522,0.01725572529008854,0.01724849395243914,0.01732218778344156,0.01752523906585026,0.017560170199512417,0.017570334997112157,0.01766251432654317,0.017717252622774016,0.017750770294848613,0.017717453764738565,0.017765122757586238,0.017838253033578586,0.01788577204433658,0.01785845116189575,0.017925008997160773,0.01796685576815885,0.017994887749760245,0.01805491640190908,0.018147626537771643,0.018237644351146724,0.01829012709579593,0.01831816128753041,0.018434334842204157,0.018512551878026334,0.018566180871734606,0.01860586134058331,0.01868373358184957,0.018730178453990106,0.018657121066799082,0.018754127313040818,0.018756032898691433,0.018713840570304334,0.018837854749485648,0.018889178445848958,0.018908977099673506,0.01886003051675495,0.018848504062985022,0.01888834431078849,0.018977872677940023,0.01894815490546151,0.018930129333205613,0.018994385505844806,0.019120504639447415,0.01912263966444192,0.019122331692351505,0.019116786727231386,0.019192767882470242,0.018968662298120754,0.01906375246067464,0.019045402624469306,0.01898909407185356,0.019065817998579284,0.019154069627624705,0.019185506784732225,0.019235705206357572,0.019216466325511973,0.01934243289536482,0.019292901042233704,0.01926686558054035,0.019084315840991125,0.01915299620352538,0.01914697831214064,0.019164690690886808,0.01905621463718391,0.019105324600944294,0.019129080185555956,0.019178079101731228,0.0192842715823485,0.019308438648803206,0.01933277601287132,0.019470539047212097,0.019475083908355815,0.019423368521967257,0.019352422592835688,0.01945035875656215,0.019389901263225946,0.019412707835737567,0.01952394086655649,0.019547452097733873,0.019614924414535283,0.01965742649795436,0.019642693312497215,0.019559964886783233,0.01950182228748412,0.019562102302289698,0.019583712049428107,0.01957552407772242,0.019617420127727395,0.019628998034661293,0.019790417395930574,0.019823277098528033,0.019858802134746778,0.019823468864769458,0.01981998897308498,0.01991717448183853,0.019907552362462833,0.019879921943938048,0.01980712550268948,0.019809782272519907,0.019783056923102244,0.0197740414659051,0.019802066301947238,0.019754893971713712,0.01975748015282605,0.019837527614739656,0.019763930373330987,0.019771702669613877,0.019772546726216436,0.01978169316686148,0.019791028710695952,0.0198629471387524,0.019865781734584344,0.019943320587086942,0.019946144561686727,0.01994921701344984,0.019917791117244708,0.019902283021306897,0.019954210136493022,0.020115859164354655,0.020111222293274826,0.02021245426816256,0.020252247684428185,0.020222737836601938,0.02023070490205488,0.02022458897673153,0.02024378406040584,0.020271604329097647,0.020393855056744813,0.02041534771024456,0.020367260977508,0.020231032428707097,0.020244936708060587,0.020158327750734766,0.02010944116109675,0.020022541531699092,0.020055110797157594,0.019992663453235263,0.019936547583215336,0.019881635789352682,0.019851873238797304,0.0198275893419575,0.01980984510826165,0.019886202687271544,0.01981794118471563,0.019868591133200476,0.01983794325532194,0.019812939518737898,0.01985857617762199,0.01977706296518563,0.019826604323424906,0.019839538279363137,0.019815257899925862,0.019771341793492526,0.019771261706815414,0.01984087182740792,0.019877934767008783,0.019808596676355275,0.01979026434443737,0.01971529997826529,0.019752792956826328,0.019846401815960046,0.019877360393120498,0.01980823511640779,0.019669019512608084,0.019661459731592012,0.01966895544785987,0.019762618422266884,0.019756863508858476,0.01970081802432684,0.019682164939195692,0.01979463282532082,0.019799987440124393,0.019832038544001524,0.01985023283177918,0.019944210887637738,0.01989220103957725,0.019834508395137236,0.01982048345700867,0.01985190117726989,0.01989520175965258,0.020014986510101973,0.020064938284522337,0.02008926081159906,0.020088595849422956,0.02001839166588949,0.020079664764468444,0.020041618947599822,0.020079139785408155,0.020141921080352156,0.020223930216689962,0.020242625542213108,0.020278627321502807,0.020353743055796184,0.020290653300476913,0.02031483909622881,0.020307061908727584,0.02034984078219225,0.02033683915299744,0.020373591074268223,0.020378391718543724,0.020370628051310437,0.020376341732844576,0.020381433841279564,0.020462776848200824,0.02046042848069021,0.02045868338938195,0.020482847677330267,0.020495061117782702,0.02045043207374397,0.020550327155156048,0.02053062696726837,0.020542929173935985,0.020625352019939765,0.020700887182757,0.020717918584010873,0.020716548736814583,0.02065854508494077,0.020657625643485854,0.020706012903828244,0.02072902294313183,0.02076472288257111,0.02066854551042697,0.02068613990518135,0.020741248654549165,0.02068353738826529,0.02065022950257716,0.02056127704125044,0.020566481175483525,0.020684174020836606,0.020732736938122588,0.020750883274053108,0.02066859278489182,0.020641868097903002,0.020493002238021942,0.020414735250900932,0.020393513442213615,0.020461846450603942,0.020441280789449946,0.020352014361506982,0.020393806098766933,0.020493097568091017,0.020573368006927786,0.020576675271178076,0.020705770519608337,0.020736153701249045,0.02076683665795894,0.02077180625837065,0.020732000855715325,0.020904635180785943,0.020927994147399914,0.02107121372016567,0.021044880898070085,0.020968711500056345,0.021031076330923437,0.021067362334215464,0.02098957823449591,0.02103159371102881,0.020921399412429428,0.021045817725953004,0.021125480718369432,0.02112323308558465,0.021127645554508034,0.02115832782347634,0.02121589345034001,0.021346361128475634,0.02139980477199644,0.021453849902737757,0.021509200577617408,0.02154532328759892,0.021500108731936474,0.021504947044790477,0.02147687066307636,0.02153701606984132,0.021573059629160934,0.021633892718474646,0.02168898999533977,0.02178743453009496,0.02189579042345631,0.021963245126071826,0.021992521060018807,0.022066880607290854,0.022091025205086386,0.02218880765458812,0.022254915283700567,0.022233970208262684,0.02217495692489325,0.022061123529506208,0.022046949620772117,0.022095476658910835,0.02217548320538605,0.022173844861939886,0.02231465339659315,0.022370197858447023,0.022298161982622026,0.022332850805884843,0.02234937639708544

Rotation beta :
-0.007286869657022383,-0.007363713339125334,-0.007441387117310827,-0.007577248256514527,-0.007559558064882029,-0.007592527448122515,-0.0076260426541916206,-0.007527973420409804,-0.007480675667937602,-0.007417341418650526,-0.007481040839639539,-0.007358609737383226,-0.007366140912240879,-0.007490783673043551,-0.007540091369732025,-0.0074593799709312,-0.007502659285130204,-0.0074293805593036505,-0.007442259993514776,-0.007516664530191836,-0.007666228157693037,-0.007702087564876877,-0.007707763398218052,-0.007639270461975068,-0.007644992706252361,-0.007592355405563586,-0.007502371255206809,-0.007566189608074652,-0.007564034333183724,-0.007546027262205421,-0.007484742568408587,-0.007598581186766865,-0.007640831094813684,-0.007672522413723605,-0.007687414272242548,-0.007686135729768196,-0.007681632784522865,-0.007755573035908735,-0.007817073798361891,-0.007745412754639414,-0.007816697538829211,-0.007923276565146029,-0.007931803775725993,-0.007944401679791156,-0.007945074948770628,-0.007943801226377115,-0.007820043175023064,-0.007829651755640253,-0.00784451248339363,-0.007879272671525698,-0.007914358636497452,-0.008034014353090917,-0.008027363638610023,-0.007906507808934628,-0.007853948878139254,-0.00787883362857117,-0.00788638953086544,-0.007898701204670781,-0.007933514497943763,-0.007837886428861688,-0.007751259221821461,-0.00778199768391983,-0.00771085476647453,-0.007739230498882356,-0.007696353358624966,-0.007737845423892665,-0.0077658559039041975,-0.007764667648068143,-0.007823010756494435,-0.007798052887633914,-0.007707811036705805,-0.0076091871194480035,-0.007529661842108313,-0.007475036884569279,-0.007518391828584293,-0.007508547389725574,-0.007408511784596678,-0.007404541887982101,-0.007366906683542887,-0.007315040854128215,-0.007318220282988443,-0.007441059465380432,-0.007465059216881853,-0.007472773518617534,-0.007482116760936123,-0.007490563998087843,-0.007564527617853835,-0.00749370345424017,-0.007438400355260902,-0.007399376601288093,-0.007313180278930062,-0.00723548974280397,-0.007233430292147434,-0.007216944227329964,-0.007272858120368811,-0.007314902810721646,-0.0073208506196818695,-0.007318345978987928,-0.007361871239660268,-0.0073344496166510105,-0.007335672546957843,-0.007335432704676974,-0.007342238657100173,-0.007374294840168187,-0.007403518135395318,-0.007425346441515365,-0.0074582723157557455,-0.00745414410487431,-0.007437900780913798,-0.007519061647528829,-0.007638587222161122,-0.00762570575554919,-0.007746320734854289,-0.007700620748056466,-0.007660143430351227,-0.007771825802637128,-0.007678132249145898,-0.007629287144133264,-0.007646299837767638,-0.00767235995502801,-0.007756058757875182,-0.007796564633957782,-0.007790092153518765,-0.007783083880133337,-0.007799886631841393,-0.007694106908454253,-0.007743672280525044,-0.007719281841515278,-0.007799624134658393,-0.007674154347767484,-0.007799827116560559,-0.007852563542205976,-0.007812715421227632,-0.007675825624682326,-0.007524236947670926,-0.0074123469113031824,-0.007349203676210013,-0.007437133349831908,-0.007444868180929856,-0.0074352833326751955,-0.007328427986655508,-0.007345527762361738,-0.007320581608484963,-0.007327129708802917,-0.007308764068715652,-0.007359373354580695,-0.007247570995697797,-0.0072338038471922534,-0.007190884346163039,-0.0072400560541181136,-0.007144591643227569,-0.007166423520906969,-0.007232226046408886,-0.007254283223557216,-0.007222627603917991,-0.007237959037118642,-0.0073515495070549264,-0.007321998305545473,-0.007262668305825131,-0.0071343212013690455,-0.007116354791530584,-0.007181371705787524,-0.007195182723064157,-0.0073392554276131144,-0.0073033357835158375,-0.007273107689484899,-0.007263238589170721,-0.00724638113043946,-0.007189044721322947,-0.007178494580663942,-0.007261179734707516,-0.0073366445700374875,-0.007408001713330231,-0.007443465756255559,-0.00735402135188153,-0.007316947915829959,-0.0072602126554295095,-0.007317129622786237,-0.007178307986264694,-0.007138185660133135,-0.007080567688259185,-0.007085792212928284,-0.007084027195627262,-0.0070598206558229746,-0.00699845198100933,-0.006966927814750264,-0.006981327513260048,-0.006912286744988875,-0.006959337764420777,-0.00693123021975559,-0.007016740137368147,-0.007009414071435296,-0.006994082328316031,-0.006911806521338024,-0.00690511177505054,-0.006997208042602931,-0.006902783285281473,-0.0069681266539206145,-0.006994117271891428,-0.007023922842105885,-0.007009063917627916,-0.006977001251992195,-0.0069285211045962206,-0.006923989247627808,-0.006944977107658219,-0.007045961008544886,-0.0070894952148457206,-0.007102028745383419,-0.0070379904703087885,-0.007041414058786675,-0.007110287217821569,-0.007206860012391196,-0.007072973219509725,-0.007124561648033181,-0.0071118064352730945,-0.007237390962419392,-0.007117507090429462,-0.007173568696328092,-0.007266703623267113,-0.00733546073258497,-0.007403438061823192,-0.007467455520460491,-0.007376618488371734,-0.007388378248218848,-0.0073342978133402,-0.007306055091616187,-0.007274968874964733,-0.007354330336802891,-0.007406677541459725,-0.007365911890240338,-0.0074044353809473214,-0.007394124036564602,-0.0072432564530946425,-0.007307098422428573,-0.007234437842058526,-0.00719622678522482,-0.007288306654897539,-0.007280675959866548,-0.007234752056096092,-0.007198816528975906,-0.007252642760879123,-0.007185153249927458,-0.007229586642515379,-0.007186982813094836,-0.007137309607598557,-0.007084052770454085,-0.007190367706806107,-0.0072239551126116386,-0.007189862355092813,-0.0072785695802328795,-0.007274213195968073,-0.007027994324076519,-0.007070973099617354,-0.007047424799692594,-0.006916456059106522,-0.0069816952828370355,-0.007017565511340006,-0.007025395970795727,-0.007005603476240098,-0.007012594552871691,-0.007045266626447079,-0.0070360403842921315,-0.006941313910894231,-0.0068747740421271275,-0.006955812610891009,-0.006935524972939574,-0.0068930699526195535,-0.006877846650992416,-0.0069255117648180835,-0.006888495202793218,-0.006884318981932475,-0.00700049673401474,-0.006996517908119351,-0.0070619794481917245,-0.007144926383721582,-0.007137268847697211,-0.007066569098157457,-0.007030940946181326,-0.006996618951825835,-0.006946043612809708,-0.0068913879802469345,-0.006960082088206315,-0.006930402540560783,-0.006934746867174348,-0.007004435391164042,-0.0070096854088157416,-0.007009395413231344,-0.0070028308526037305,-0.007092245956444909,-0.007105477210308012,-0.007108972134493291,-0.007154031158261363,-0.007157948093321274,-0.007182232558428563,-0.007194400515787649,-0.00716379008629334,-0.007181581550236066,-0.007188755868768861,-0.007228518628137118,-0.007177599866046079,-0.007131637048518445,-0.007009652511098954,-0.006984630430373655,-0.0069392294809743444,-0.006923820892880619,-0.006951959853480475,-0.006873133490895449,-0.0068032839464414446,-0.006806368595030213,-0.00675330850129464,-0.006707164687636915,-0.006773647502373328,-0.006782973528626112,-0.006834472929763246,-0.006915373905795068,-0.006915754005877326,-0.0068471116151600005,-0.006828628461423079,-0.006851733728737254,-0.006651207145569358,-0.006721564472826995,-0.006686624388190163,-0.006677738351167467,-0.006638552834419652,-0.006666112245484732,-0.006603990723218315,-0.00664387344851326,-0.006711406492890088,-0.006598332201271826,-0.00655965888359752,-0.006582937531897735,-0.006716937513960723,-0.006730445481339757,-0.006745708664022372,-0.006668694496770307,-0.006654406847228356,-0.006700638060407434,-0.006573653379190288,-0.006516371278277763,-0.006529934160535282,-0.0065168721233889075,-0.006470102535035449,-0.006496421108975614,-0.006602851585732117,-0.006604234905172161,-0.006660309859898888,-0.006750080150344932,-0.0067378336305925525,-0.006780582701785062,-0.006657392341141733,-0.006564686709283158,-0.006588361137579012,-0.006526007364277228,-0.006465367177202012,-0.006394777483413255,-0.006413881277587262,-0.006351236076360961,-0.006356653464652474,-0.0064208649922067994,-0.00643220317185413,-0.006355198831724037,-0.006413129853817454,-0.006458854282855929,-0.0064394305710812295,-0.006387897422143384,-0.006396816776001858,-0.006440005620382416,-0.006297799363278423,-0.006286089554419791,-0.006381987437482341,-0.006383698330216419,-0.006486434724154169,-0.006438560567921631,-0.0064566830259354955,-0.006455624365804424,-0.006430488724555059,-0.00638499379217359,-0.006359912368032723,-0.006464343637520859,-0.006390061029177192,-0.00640745711484625,-0.006313121387824838,-0.006376047960242052,-0.006407841701754726,-0.006506134263342433,-0.006563358725787014,-0.00657423006115844,-0.006576281524328289,-0.006569518392095133,-0.006582167310503664,-0.006597668040382818,-0.006731852518824926,-0.006771421173797476,-0.00684132029861102,-0.006856629856854895,-0.0068796099263466574,-0.0068949486791350855,-0.006826309535042065,-0.0067594844577411,-0.00676968880645427,-0.0067809571390435065,-0.006818998328279924,-0.006816342094660038,-0.00673105407950372,-0.00668687846997922,-0.006678205244187211,-0.006696860124969802,-0.0067603255300792775,-0.006745126074410494,-0.006654638918106031,-0.006607495740827201,-0.006653157063186008,-0.006732856671948732,-0.006831762083366265,-0.006817600201034951,-0.006838679477867075,-0.006970663269213186,-0.007059206364110258,-0.007007940538736481,-0.006927247983583263,-0.006792763144099499,-0.00675762150357872,-0.0067597809724240605,-0.006720411381135102,-0.006740284400108866,-0.006647401705133525,-0.006701082799645872,-0.006842487933036965,-0.006877636256315898,-0.0068176035400703645,-0.006768494719112375,-0.006788042287403137,-0.006815030318011178,-0.006823240038611532,-0.006816144792546623,-0.006831162529157985,-0.00686467600921464,-0.006719149104887473,-0.00659080920359946,-0.006530502881650002,-0.006656336352038737,-0.006689441982553635,-0.006661233658959578,-0.006638136616593232,-0.0066793017771109246,-0.006679935414008202,-0.006611456802090052,-0.006719077247673941,-0.0067703538388755756,-0.00689073889636929,-0.006875398034300521,-0.006766647310825351,-0.006878234044624446,-0.00682129593198624,-0.006914763148264629,-0.006924459688495673,-0.0068171745567040375,-0.006943888673539548,-0.0069546929402878165,-0.0068225752135729675,-0.006926791556420219,-0.006894634848347736,-0.006973057229282092,-0.006939662707403135,-0.00697930056379205,-0.006976768767634008,-0.0069998020426398685,-0.00686992010339639,-0.0068383593973364585,-0.006811271047940247,-0.006808792054444497,-0.006833697775573734,-0.0069091988456041805,-0.006969717530722161,-0.006879791841147239,-0.006851001019786404,-0.006884842997902654,-0.006952022718002195,-0.00694520470537351,-0.006961569087737104,-0.007002310166287934,-0.006987926315759706,-0.007013287550876408,-0.007036550718682564,-0.007098707199715902,-0.0071479056465004595,-0.007111992488499971,-0.007137120068706934,-0.007134299923028085,-0.007022323062068227,-0.006962106777675872,-0.006886702946901468,-0.006899090636776411,-0.006932052388751093,-0.0069970421831202405,-0.007009299116373392,-0.007032521145229177,-0.006917655851251324,-0.006899051976667307,-0.0069210814456435255

Rotation gamma :
0.004737734603285276,0.004689261954385997,0.004707458137741695,0.004753204517878221,0.0045909744821011475,0.004397891619524403,0.004345404922132907,0.00442913407593428,0.0045975384366690455,0.004710742639496551,0.004759372022333864,0.004763073243302875,0.004805350488923915,0.0046919113438707895,0.0047120346916472355,0.004874926160395755,0.004934120700197603,0.004996129327301597,0.004977337379783478,0.004976061224442204,0.004982199491825293,0.004956257052988346,0.004834848557708258,0.004944595909363567,0.0049158125874606984,0.004810303470032257,0.004884786045778313,0.00488307419039952,0.004818243636542569,0.0048788655642183374,0.0048582625359861594,0.004933177285621767,0.004883333873097626,0.0049052654592145846,0.0049204021842519366,0.004888152349420161,0.004865978472947013,0.0049302216852580415,0.004929223037162005,0.0051335650260089195,0.004933274251426133,0.004872380797135905,0.0048440417787600065,0.0048425522598741465,0.004853842827316488,0.004848690488895173,0.004962566549400287,0.004904456624058006,0.004683335736823439,0.004647251973156213,0.0046680045878905885,0.004636575861271267,0.004559399215540623,0.004707486656118756,0.004814243152268932,0.004874138666346787,0.004836843484285966,0.004990132357111826,0.004990562006118883,0.004991603770491949,0.0049450548239558575,0.004917733059854914,0.004896946564216303,0.004868141420286543,0.005009671479025141,0.005011753881199993,0.004949877058582598,0.004793804022159082,0.004652714223377809,0.004701944742858189,0.004782895652223524,0.004878446427168452,0.004853947845469075,0.004790893100778649,0.004760082368946764,0.004809820597905985,0.005085314475770705,0.005194185948316132,0.005177942487647218,0.005122348657770253,0.005092992596777545,0.004962777799611339,0.004962060656809566,0.00491098079535711,0.00479438898834937,0.004638266132657086,0.004635941669827853,0.004588692314263688,0.004542383223880678,0.00451301736858162,0.004615653083916052,0.00459333453836845,0.004483176426161355,0.004517842003410956,0.0045553392824453625,0.004575331533490476,0.004573180602909738,0.004503089050173837,0.004404902256611457,0.004536386962425652,0.004602046424906029,0.004670582480280334,0.004611836157800577,0.004580998274100189,0.004716135149830194,0.004575950430205991,0.004553755462857273,0.0045910646743438565,0.004616837963880775,0.004626199961155089,0.004607948023212363,0.004568868485932694,0.004422758518110819,0.004373041490884951,0.0045232164883894895,0.004398398587955228,0.0043999826433306945,0.0043464645935055325,0.00442485760256628,0.004417643191046529,0.004345729809491232,0.004440624774608689,0.004495230380480336,0.004683886788488403,0.004640003285251451,0.0047219771135078945,0.004692946200975874,0.004754100636443959,0.004595072226581634,0.004597952556542649,0.0047051534366185895,0.004879808243399229,0.004891865231984526,0.005045722306535804,0.005093617983891126,0.005232651516259191,0.005359036219548454,0.00526536057448207,0.005334956700743859,0.005269754281186842,0.00504836973439829,0.004986516012311995,0.005019907716110198,0.005151491126109152,0.005252114804848657,0.005269036582365797,0.005240035834957859,0.005224781327366374,0.005184470260240638,0.004980930445877786,0.00510549782611557,0.0050865201827224316,0.00513626267063231,0.0050143671684364415,0.005009836128194267,0.005007005132936545,0.004954469002471114,0.0050913155469254736,0.005270105248569585,0.005413204658678471,0.005340987197815244,0.005274791944831447,0.005259232992182497,0.004969826682840456,0.005007252665995126,0.005128528437551604,0.005101913380916191,0.00505314824669767,0.005116061224310627,0.005125869243699089,0.005076619682554045,0.004993971825865431,0.00508207046027119,0.005096824380157132,0.005183562945971855,0.005238003112107963,0.005130512408937076,0.005107978197512549,0.0053368272806889935,0.0053007625623795575,0.005371762452772635,0.005361258342446237,0.005399954594406583,0.0053836567140772475,0.005381884723255641,0.005400212469964078,0.005399242749423381,0.005498847905056916,0.005451608470925574,0.00543014382457382,0.005377225534453921,0.00531285669909977,0.005223261859470005,0.005168768656917436,0.005170429786746028,0.005204348748585436,0.005131596767549493,0.005044293546164464,0.004978374363651331,0.004896850825301772,0.0048921245189526286,0.004895262461354912,0.004817326930888028,0.004866152143582219,0.0048468520663393026,0.004975061879369639,0.004915913458596464,0.004925438836102831,0.004945311109095857,0.00498192063732999,0.004984438556875031,0.0050123369868468525,0.004966939922824417,0.0050361086649187,0.004991929546241534,0.004865271593629149,0.004924689913964802,0.004974838153460615,0.0049833949737858535,0.005058735067044818,0.0050656260884237355,0.00505811423028699,0.005054894974798196,0.004897042193753629,0.004816544231770929,0.004848528387868941,0.004848235887625852,0.0048212783439419435,0.004852602950779584,0.004812644669353342,0.00481715766196417,0.004797729867438106,0.005027081272005204,0.005030867720247041,0.0050719915632354,0.005100115785862343,0.005001670967926351,0.0049973989982225265,0.005009225338663163,0.005111989463314206,0.00513121977036763,0.005310490423844292,0.005253176645824352,0.005380078917963396,0.005392926579688378,0.005409138478219572,0.005313869265292261,0.005406652047302426,0.005340547644728577,0.005370484425801785,0.0054079743437756575,0.00588307646830392,0.005897455539664225,0.005951898976144791,0.00606057930912794,0.006059049157035132,0.006011861247830963,0.006065175929458688,0.006065572688343387,0.0060392452556200195,0.005991686431015321,0.006100960202423247,0.006113903425812612,0.006232343433799612,0.006196778239439571,0.006312476755143292,0.00631325724359504,0.006254572032594649,0.006212609640573822,0.006172674826617508,0.0061504033289589335,0.006045997066546296,0.006021412084973573,0.005961292077484449,0.0059102411421758155,0.005895877746702308,0.005946495916621246,0.005970363639394404,0.005871427915123553,0.005862711991242474,0.005820805738722543,0.005703207215927929,0.005745662867567509,0.0057580148172032605,0.005787080094975956,0.005707564267010097,0.005810528221300341,0.0059335386315361735,0.005793988685607981,0.005595472322987062,0.005712922688498262,0.005689436429362673,0.005824402001530078,0.005784309772658084,0.005737550603783643,0.005724748202566877,0.005595440462073001,0.005513959407975389,0.005440279711139484,0.00544502734271927,0.0055878042337404316,0.005619691522569309,0.005608851719717375,0.0058453976551081435,0.005923658250723004,0.00585184274936212,0.005936288546850402,0.005934232882728517,0.0058043049495456606,0.005731479572924393,0.005685844415516306,0.005472935459559985,0.005515038678173125,0.005518762723261569,0.005454597200868358,0.005421549443129613,0.005323568842345508,0.005425347828746701,0.00548288681002649,0.00544301587990054,0.005527562402672841,0.005473209075026133,0.005440006859672927,0.005476847819962401,0.005352149661499488,0.005373356481755978,0.005353225285736554,0.005320852976970431,0.00529800438509419,0.005210120983957154,0.0053089932042482855,0.005353445645053963,0.005464199850742512,0.005619571014485712,0.005770283469584025,0.005773173746301681,0.005760083097669627,0.005714059146527998,0.005789687180979378,0.005720894111099517,0.005742076026560003,0.005754580087553835,0.005833528655876784,0.005789627336274283,0.005808609865201348,0.005803375870158811,0.0056750508316766495,0.00572368046227804,0.005637032558572172,0.005699202612701308,0.005735737167118417,0.005769991744174498,0.005815777070270172,0.005761186466554328,0.005811140058184341,0.005873985295368325,0.005884260600252584,0.005946456845055539,0.0059161698615982,0.005764616438752625,0.005824293998978476,0.005811155463004688,0.005942685217416609,0.005873761665004543,0.005794347693444285,0.0056908542784481755,0.0056083515339827444,0.005735661534055739,0.005734014018852364,0.005778840508482611,0.005733958048189614,0.005754320030990496,0.005930336033346925,0.0059548957063549224,0.005860995021692835,0.0057611878995264,0.005830296117449277,0.005895513079611599,0.0057540247473382095,0.005692445378520604,0.005723024225588773,0.005723310699418542,0.00571092714773821,0.005636458004014437,0.00561792815705139,0.005602936675739582,0.0054852905260323334,0.0055259566777871175,0.005602074957614162,0.005436271506419997,0.00544751500142835,0.0053438195993971305,0.005318574425423519,0.005355587213881686,0.005457226489540769,0.005344822500443486,0.005301100978867798,0.0054533188121179965,0.00547477268307409,0.0054025413179317906,0.005332435993813852,0.005328377082473302,0.005348699300583368,0.005308508266099576,0.005239282055850405,0.005296534242790114,0.005260281444974564,0.005285265139838171,0.005145468838244199,0.00529813658054917,0.0053139635545819824,0.005324198857886357,0.005423300776780221,0.005358085039677934,0.005463071298876851,0.005519889641890149,0.005558343558055829,0.0055357678330228465,0.005555846186962266,0.0055703464321159675,0.005668602853892506,0.005749866227989563,0.005641429695301998,0.005525340643862231,0.005499931363478697,0.005502008659714632,0.005417938022557993,0.0053756824898583,0.005370894224439154,0.005362566097263886,0.005518772896333676,0.0054954779249249495,0.0053563473238177235,0.005300279459143356,0.005426516321196985,0.0055830560220650185,0.005540009767997316,0.0055645717355276795,0.00559783071536823,0.005580324861402756,0.005613776570089754,0.005633608680397901,0.005744011562440343,0.005654378548933987,0.00564999099581019,0.005629736191501401,0.005564167252000601,0.005338141345777652,0.0053176184041024335,0.005328644738824086,0.005419953388702954,0.005506200179826272,0.00541205587451837,0.0053870379241958135,0.005279548653004284,0.005348029898104908,0.005571567195740452,0.005619058163735337,0.005634025609742509,0.0057375592261141445,0.0056074497698144704,0.005484876099940074,0.0054188717809892815,0.0053630186003786285,0.005251319562044726,0.005244599055298607,0.005382419328019954,0.0053675813308012976,0.005377147736795918,0.005199271037258782,0.005064217808401673,0.00508820637218708,0.004992739763297175,0.0051214478638109155,0.005223062357768104,0.005137940371599481,0.005032075239866466,0.005021657865080073,0.00498314990917903,0.005050817168614009,0.005008799697003926,0.004987503883929367,0.004958051132129048,0.004963178058621379,0.0049740278831013505,0.005078573613278641,0.004997185230252023,0.004849991478905098,0.0049009067283297915,0.004954919649772623,0.005214513323097149,0.005366559336714549,0.005421036929715577,0.005455492575436471,0.005509779787387167,0.005465565592267166,0.0055418427320483915,0.0055993270989383274,0.005525846478652709,0.005476358624140013