Acceleration x :
-0.05029649660575669,0.025303557595598977,-0.11580875558718107,0.02046353368590353,0.0075920083360892015,0.019468638613750224,-0.041952432930748906,-0.06148230934559833,-0.03962514989380724,-0.03709492588000139,0.01717119016771321,-0.06625309024425223,-0.028503693927335552,-0.039593494380218905,0.01811169045479619,-0.027591773564054164,-0.010687712183216354,-0.049085001924145034,-0.03786876436328748,0.0031038229360900002,-0.027379569285211618,-0.009294003077293746,-0.024466853326419367,-0.0374448695455445,-0.02152823802467901,-0.0012285549861502658,-0.0322791276626871,-0.02700146125439787,-0.03901498210621066,-0.009164498941865168,0.0021900873583465,0.024583922101138158,-0.04814293986763805,-0.053383384104655124,0.014811471874115523,-0.0392469550980255,-0.00920392220337817,-0.05397084687009919,-0.007709625100079574,0.01815847503885743,-0.006853980380878783,-0.08622397472513839,0.01805935633771587,-0.03579748136443086,0.0017573799027188215,-0.02023263383974554,-0.04661341047910973,0.057259755180543284,0.1615709103986621,0.012330042880011024,-0.13557655524401924,0.007959074383080588,0.012642183277325239,-0.008716695238038663,-0.012372291711205616,-0.006763922910671681,-0.009740413404232822,0.003597849249563296,-0.025698751475242896,-0.03293577179037965,-0.014672416171518852,0.022866226896480657,0.043237750900397075,-0.035380790322320534,0.017705495690525274,-0.014367413334466983,-0.026170864782307762,-0.014946772708557545,-0.0004972772526916742,0.011034866811695973,0.02162910458326805,-0.229492627974879,0.08961984597481787,-0.023469620166707318,-0.1755278683522716,0.08408401268753223,0.06079851006621029,-0.10081422561360523,-0.07456453029129188,-0.07372997003013733,0.030358203786797818,0.11332981651932932,-0.19056533328527583,0.07771635908544994,-0.0128352410393476,0.1136776983752381,-0.13321505027706734,-0.05924898363584652,0.24049281848212703,0.0076158315988490355,0.017792243533860892,0.03148335362551734,0.020136075846804304,-0.12121016710614785,-0.05940043873735703,0.009015163873849086,-0.06606337635843083,-0.1014379104699008,-0.012766468385764163,-0.13623182254866695,0.036395648186979816,-0.2239971540974453,-0.09986466067065485,0.163342906773556,-0.09433965017148294,0.09848787415842525,-0.042987484200065956,-0.013395526961854193,-0.08244507724093272,-0.036690701593819534,0.012878487667674198,-0.1698614583547227,0.014058222946064779,-0.005733847498105024,-0.2033843367175199,0.021573833015363197,0.012736655486101516,0.027553596978134007,-0.14200755640589632,0.038602168088196775,-0.05549178196021821,0.16888119687940925,-0.022616044677828902,0.08003545881593599,-0.3140054879331961,-0.0037859953723280338,0.06917832090803422,-0.20705401993989944,0.03484987776641501,0.056670849376684054,0.00030848577980104893,-0.11696296712360345,-0.05929021069537848,-0.04128051588539965,-0.09699766300013288,0.09510443313205615,-0.0868130449257791,0.07572280608147848,-0.02759825125390198,-0.09799472947977483,0.037641625093505715,-0.09092531168335116,-0.04421723149099853,0.05955494887905661,-0.08089410320557654,0.023160392104042693,0.06294917616092134,-0.16847902755299582,-0.09834356118375435,-0.008221051499980966,0.04385491011778358,0.004818664315369097,-0.021077754310821182,-0.005885557186297956,0.0823814739528112,0.07054727574025746,0.015532628038804978,0.031076215863041576,-0.011732924086943966,0.00963245152622112,-0.009391210095028508,-0.030227403314248658,-0.047907281647971825,0.04255323923495598,-0.006925450739980442,-0.10868923330502583,-0.07192571992003359,0.002434040194789122,0.04231440267751459,0.088396496458631,-0.01306217024657526,0.023428228710393885,0.10316394881121814,0.0584686012473423,-0.03720093440458877,-0.08906452278015203,-0.16055618039816616,-0.09109495089552365,0.021645911870885173,0.031688326729263645,0.011096951712877489,0.028705872285796793,-0.11731017312607728,-0.029086327537323813,-0.02921368252732791,-0.06408127633023541,-0.005929712563499924,-0.006735195714753354,-0.022453132033965085,-0.04238222091645002,-0.022970427056471815,-0.03263166971069295,-0.019903965857671572,-0.015020938489888794,-0.05581036465640645,-0.04573604768926743,-0.03188896158460993,-0.021681369060045107,0.06780604617414064,-0.0930515374565497,0.03973705843621865,0.013530667966092005,-0.08515850091809406,-0.07392772109194193,-0.0754819099976914,0.006534080797972274,-0.06455749727354851,-0.0003350039296446994,0.08237498027994297,-0.13064563818047753,0.016746932307077803,-0.0921954046844039,0.03257426098462893,0.03588275077837752,0.020600636035075875,0.01380397076542722,0.011342616444971644,0.048413514137058515,0.06894380889926105,0.030780664699280168,-0.048133907177811484,-0.03698278900872683,0.017132313753827472,0.033453331674367655,-0.005016652839191374,-0.00016831779455333163,-0.02900327291334979,-0.032283723922702484,-0.10174007175425066,-0.029364859067625364,-0.1268219699727837,0.006057824463685392,0.024904509524744933,-0.03232052140228916,0.0025234183866283274,0.02058514392171055,-0.13625171455922536,-0.05311984693079721,0.06231112028597854,0.05295341345586348,0.0092415405252279,0.018449044066824717,0.03612482047252124,-0.028609040298219767,-0.03855547940225806,-0.004266945006397145,-0.0240738103046664,0.023382318625878543,0.03308203697683056,0.06959420366596895,-0.14272493829447774,0.1330552748717833,-0.04613011134103872,0.08598163560293615,-0.018024974577501414,-0.02894652634098893,0.022422896725905594,-0.01369204281506245,0.004872302761080209,0.11315060576121322,0.0061311813900189,0.049652458514599124,-0.039344839681661685,0.06936725847572088,0.010784110345953377,0.13597329034348948,-0.00546361686362361,0.0001384799035830838,-0.1038206226216629,0.02322323962362716,-0.03580524226248963,0.0007719860940309445,0.12032104537985287,-0.004396216817207459,0.024211915017548016,-0.004846806418575579,0.04872916965722106,0.11083059271527454,0.06013523298504296,-0.04659192473308649,-0.005302973237837432,0.07036181790444535,-0.08205178534071891,0.05186070001544431,-0.06865138812421355,0.000882753348890401,-0.10175093107498251,-0.04325453307183925,0.02023540803543292,-0.030666475151525808,0.02815851548516657,0.025708167757559568,-0.039244137519854116,-0.05361306010810658,-0.0036302225720151906,0.019349311666574793,-0.00679429179111612,0.01798317669581156,-0.07476159179992974,-0.06336068413783796,0.04049121953807771,0.02536125858260784,-0.0006161203924119036,0.040429383515357034,0.01613468444353784,-0.012265232873847707,0.0077076152352616185,-0.0021715190843722663,0.026278850634850096,0.03172055763158714,0.015949581659107932,-0.0016476912876794813,-0.018315376925398596,0.02079003482706612,0.06299125260382425,0.07330185341171454,-0.003284938813158078,-0.020782970332039984,-0.006350281771351001,-0.145987821681099,-0.027534750713768878,0.029119679534365422,-0.002327839873956691,-0.002558057016813836,-0.030764499015768523,-0.07831030639060772,-0.08114119156813249,-0.06623030302370898,0.03953155789279844,0.19719572947677225,0.07469560475847684,-0.06110461230673827,0.03578327474256512,-0.11724895359128713,-0.06284195292678195,0.014084307235392042,-0.03944789363075979,-0.052884056280390355,0.02728815325826872,0.0457356047312729,-0.13814130029864607,-0.04505816212743521,0.016151692660554544,-0.08457439002036117,-0.037017757574119604,-0.0640147458660882,-0.04728894882022869,0.02378991532936925,0.01553332215854898,0.05653034036087338,-0.014025847054913174,-0.04624678739011288,-0.07756393586955965,-0.05034390224432572,-0.018791117236454737,-0.033023593921016434,-0.08017236480228603,0.08055858764089643,0.050850326529657465,-0.08596642890064976,-0.04362433906518854,0.04886694329325109,-0.06272627239155117,-0.052209572818619196,0.012128411369177047,0.02939544371884549,-0.022149187501193955,0.01408318956560688,-0.018393907212949125,0.07184497826744336,0.04027196446394082,0.01825735285304836,0.015732484292727895,0.1449666802061256,0.01153535340494127,0.024968487272202036,-0.08610007435083389,0.10595031899358145,-0.16646407100139185,-0.01384383127671317,-0.048184609885164535,0.1627629149285145,0.10828837915286421,-0.01781912240763195,-0.029692899145325646,0.24074027217086402,-0.015916432874754537,0.08038119438053108,-0.08657848725123331,0.045710264794039536,0.11240798896667546,0.08619470296488144,-0.11180584922190755,-0.08233094934197142,-0.13091815324523484,-0.560742443235591,0.2525758175237104,0.01725928857627441,0.08684335786565206,0.038189146290917415,0.1311691231984645,0.12230394455906934,0.17176972139514982,0.18037669662293046,-0.0859739272205159,0.09962766444385052,0.12152730676392093,0.1290647073982749,0.06567058678171597,-0.03911814108658582,-0.08036919341548346,-0.008587591248942771,-0.00947170229833573,-0.05795247298532631,-0.059573863642080685,-0.0464555713025853,-0.001349630504300876,0.08828140957844444,0.09759857890219427,0.07287616621239576,0.029984395188477356,0.06196169036037754,0.07224606988162267,0.023932157361251302,0.012857668641931377,-0.1492030665337108,0.033620936476369385,0.055689122030069114,0.03992415110669099,0.024637314522499218,0.060961961566191165,0.0013602610680529324,0.05270047074125614,0.040022213786840434,0.06991271329692099,0.11822369864126667,0.06004110669449437,0.0405252496718429,-0.013274671352939912,-0.011791152513626729,0.030643916259845718,0.08428192814611829,0.026161656279256564,0.03810630629607476,0.042614764730422756,0.10548607161585241,-0.055244214107049626,0.007889961519491043,0.02423696497712517,-0.04973268871053587,-0.008211455979506718,0.030622693092015103,-0.012715105807996587,0.00009271677901610928,-0.026140812137338796,-0.022543077623029237,0.0011807355728695255,0.023428801815840415,0.07122350820112042,0.04353005294443574,0.004462318308503017,-0.023080961059127002,0.008030178845179033,0.06190340713476762,0.09251341199185699,0.10821816346086562,-0.02153480476278346,0.009434361396054736,-0.007059006571085774,-0.03354670219637919,0.08515463759372942,-0.0009131601176555705,0.02335170657519484,-0.048994359932048245,-0.07626820610375143,-0.005605394246269133,-0.12883182109100744,0.060286172063322735,0.00039000235914700166,-0.05915573869470972,-0.07936350523796863,-0.0662388333900366,-0.03852717118980363,0.028136082174361216,-0.01158233435182483,0.03576128438975429,-0.1061519699123688,0.0800934086814057,-0.03201321586865233,0.07932773980484344,-0.017743709950707853,0.11593840984883717,0.0378908049484482,0.040097548611951056,-0.054746735746576444,-0.11361932838466018,0.10969873000797815,-0.007049711303066578,-0.05694461568361148,-0.05483825908808503

Acceleration y :
-0.038022265291411894,-0.07344270035424269,-0.20072567543489858,-0.04968687224085443,-0.02776838137313025,-0.0334139335290296,-0.04391057212804444,-0.3420951987987384,-0.14090425307280383,-0.08856613567080349,0.013796822930366033,0.018379297590639908,-0.1362094189206138,-0.18156260020555928,-0.08335864842189475,-0.015647373567341128,0.14077426088443026,0.09689121608412823,0.12825444132816047,0.04808734178945888,0.011684269489493453,0.018642585886036976,0.037642435660969926,0.030808744582871438,0.011565142330073285,-0.04748020164258778,0.044882622897438704,0.06806156443832442,0.0809474956269376,-0.007708096438340726,-0.04745696689747274,-0.05859615945003461,0.014784579300612676,0.031945073402731214,0.09143760858704335,0.06579833221407606,0.023058883941348175,0.005587870576843852,-0.038375725221447644,-0.007725103513713111,0.03955755085058044,0.1490733118073549,0.13067067215703426,-0.07551603146300186,-0.10268155385544522,0.03829951361350249,0.06821301953983493,0.05774646555182989,-1.0298037971176206,-0.08377977817710489,-0.01836477701658732,0.17105408393908292,-0.03523429680700647,-0.004270913076627766,-0.20849008062500504,-0.09851058831373229,-0.025284791246335953,0.019455078162567224,0.08028891298719681,0.0656493019650923,0.08845933256177231,-0.12995639554099178,-0.1451765600971412,0.09051368040884844,-0.0385107178119244,-0.08074927877425216,0.04252982182675041,-0.029142784132028463,-0.002988745189057954,-0.013769501098600449,0.009151170244478271,0.05097032248040195,-0.1633608625553548,-0.0675839689552551,0.2780757493580691,-0.008525359646466677,-0.1362437869810965,0.11588077051062136,0.2100102576632984,0.269153917761147,-0.09007653110059909,-0.11683727665101178,0.005785456100222654,-0.2695970766850747,-0.007059961556555936,-0.2075222585061565,0.034502984574483704,-0.04767608954086899,-0.24265425256602466,0.10538699515555053,0.2663544963009655,0.030747413166938346,0.01892901873664814,-0.036351918643107634,-0.021288307771983088,-0.005177173167391447,-0.12387960551111027,0.25569710961570963,0.04922952039479278,0.13984472494935615,-0.00441722621213994,0.09794446059726178,-0.030877439604641402,-0.018457695447449803,-0.11771461660796775,-0.1209610694495961,0.062344342135568144,-0.07303285917802714,-0.007748500372320995,-0.17204979871185497,-0.02931192102070199,0.06892305380559992,0.05841158753021154,0.0759722051321296,0.03431251948670251,-0.08054964628261514,0.12279600239233113,0.022577918324258643,0.12737161234533415,0.16884263670099897,-0.06742656360357067,-0.12526705954782663,-0.05548825656257104,0.12999090973194688,0.12769053296823984,0.021262410712323616,-0.04244737227426376,0.012635517216165317,0.03902978694969788,0.24563407209441065,0.010470530335156944,0.1152008802213706,0.12695101231308653,0.199428950155247,0.20314506633523852,-0.06991872291259933,-0.030304544220666866,0.011400473837251774,0.08559104711646214,0.060184803181234744,-0.045771977519174105,-0.10435883941790089,-0.16071239387318492,-0.1613176845562644,-0.12410282894088887,-0.0898707063301932,-0.003764583833185315,0.1450110490708146,0.01787074756359216,-0.060087124093575396,-0.06319397666826844,-0.011906363833043724,-0.01475327313018497,0.021255136154743375,-0.03104401921004755,0.012858712104836013,0.04605143834794871,0.008964847613096936,-0.07380531855497975,-0.12909290144629776,-0.06999561037397943,0.16489559784196317,0.2184503153589554,0.13899978029150514,0.06754673308425117,0.055655653585307295,0.08017684004800393,0.04979381234720349,-0.04694659252280835,-0.1607433370007202,-0.13973244194760917,-0.04171021710613276,0.1864150634717196,0.1528091830005869,-0.008427883200673386,-0.02991605635973392,0.02265696805997286,0.13626665640003047,0.13450319039146416,0.02854332953469129,-0.03189334778207121,-0.012888088896370026,0.05799995168913155,0.06547871747142635,0.05761285206768661,0.07374914965464267,-0.11207433656551874,-0.08059440787294879,-0.0767018939464353,0.019014017580891957,0.01800215082434006,0.05943518582375254,0.007154247677308739,-0.07725427626534365,-0.032192563624086325,0.0697983844685601,0.09698589949710294,0.14819486673870122,0.14048815568573772,0.025540478473878463,-0.014419892440375405,0.0071232400468696135,-0.03827300234920112,0.07073513559571001,0.0499878279488068,0.06219417937542311,-0.004081843934433709,0.08189908813019282,0.01913739736538846,-0.035158713103435,-0.028271958397538398,0.03927807175549678,0.07481756433744449,0.0641418702439405,0.06827547205048613,0.0935562173093669,0.007717678259083186,-0.009299364239000714,-0.03167022253370378,-0.0023414842359969043,-0.03408241422498831,-0.0846131145955529,-0.04931087853531353,-0.03654321484795073,-0.05185985063207336,-0.12061208248198962,-0.052689739284687676,-0.007349404923227848,-0.05684030135918874,0.03838873083349317,0.06212765347785316,0.000019745851098912224,-0.023767854194610843,0.2076472731253132,0.12086204778822138,0.08623713560081087,0.15302577576017937,0.04517132647859398,-0.024397112558456138,-0.014317286015849095,-0.06748858228938188,-0.11671061806404032,-0.05376915028553921,-0.002289751908176549,0.04766267293686978,-0.05266283301145304,0.002713139978548861,-0.06118370542493649,0.0013951865363727846,-0.06100528468468692,0.050388476604991586,-0.08285759443142451,-0.009127740278185229,-0.09583611754062585,0.06529526892961003,0.12258128192941657,0.1456034711391665,0.01633643582702498,-0.02260033793533221,-0.13996159279467538,-0.04985872624299954,0.031434632812696504,0.12298690358824096,0.0203803991468274,-0.02483057663885411,-0.16127433860488236,-0.02942282034953823,0.07132531547462567,0.1494238422780763,0.09060976119446568,0.1525384306346532,0.10474654182754456,-0.02401720986277796,0.044902108482620676,-0.024928755766723768,0.12622859805636108,0.050106910584098656,-0.007457533481309656,0.03962000336123164,-0.041816773619991726,-0.050287610046402545,-0.17316455502072348,-0.0042044533944281285,-0.05288899275041185,0.04911442894802894,-0.04720818890132941,-0.03548506126425927,-0.01049389180279104,0.011432194424566113,-0.008096320579436723,0.07110592796974816,0.026006593581708145,-0.06118135363764595,-0.041205637718015345,-0.07049085111159366,0.03618675467665307,0.025403615870012435,0.021935279889032242,0.03938196138823405,0.09568667173311114,0.0536615708583733,0.048437319704331454,0.05427720027237665,0.12195398947708308,0.19704190888823941,0.14317035310757345,0.1712220974497497,0.1321808301248122,0.04913043480133637,0.006863333301935927,0.018408621866535396,0.0021946951775105843,0.043482021684781644,-0.04262958784021902,-0.03677431334021967,-0.04265304634761996,-0.0947315446990542,-0.07231121210628189,-0.038173135871032715,0.007609036531881429,0.01935479612586787,-0.09766494953613727,0.052526739875855856,0.08322765158652327,0.040732138454751106,0.08688377207443118,0.17130566581366583,0.14670406192536464,0.15652995708938688,-0.10242648311583324,-0.13044917489346117,-0.11933549580806865,-0.17182921476373447,-0.06070189955763053,-0.01612311159510864,-0.0678586074784398,-0.1403175300928764,-0.20446787590421736,-0.12387687469790688,-0.11750475498326123,-0.031239286053820977,-0.009768327749398304,0.030041696599975694,0.16198111690105868,0.18078065604763105,0.21191557982796802,0.12080089218551292,0.041004498255881476,-0.014443530185933922,-0.010129549719137139,0.0723830398000544,0.16200066185174508,0.18025723496172577,0.02500743560967967,-0.06628767293386627,-0.08710640184916556,-0.0055877849535201675,-0.0436678357136203,0.04490350585526321,0.019257514330430422,0.010858479339972837,0.013240878681192407,0.06366331121306866,0.035028179775655734,0.020007937688799573,0.05255640892833471,-0.03494275281479349,-0.04610364345922135,-0.05605109634341206,0.04922228693640791,0.06965901709706522,0.02857285930656362,-0.08006969901225529,0.0201403113472159,0.013155077260994585,0.14604478516587988,0.03452355928834295,0.09849802109310403,0.10535122972242533,0.16523600877746938,0.07331657149023375,-0.0077460680991061955,-0.02967073982915608,-0.02598425845231395,-0.07660614195438102,-0.08402588015897199,-0.17663950112229213,-0.09224200203879736,-0.08442743756403215,-0.18846973097920416,-0.1830071912569925,-0.02998870603741379,0.03770504115195945,0.04663850838774815,0.03735621629784582,0.16683863993482664,0.11082308526225387,0.1756153091737069,0.14864303063130938,0.051496570277633144,0.07899342981656081,0.08303096910379827,-0.12208338801041245,-0.23822218840271234,-0.08749705426772124,-0.057259732347656966,-0.04060604612336028,-0.03301061799172312,-0.05279413580750115,0.12425877755442634,0.08278384420862421,0.07081087684619705,-0.07739734713099897,-0.005821372230397537,0.037282600789074784,0.12147696481617166,0.14551519006751476,0.024730052573559803,0.00191919342851761,0.05814889060657005,0.13379996489239857,0.1060258867141325,0.02177440165533917,-0.012725768765906104,0.03723387997625396,0.01949091437764,-0.008465636807374539,0.007728430836071493,-0.053454353281902144,-0.07241294174797366,-0.027211911967571358,-0.024496234684530643,-0.04726599720290396,-0.09131902370867319,-0.050248935703560704,-0.09914937027445994,-0.10131895113219506,-0.11641459425953216,-0.013838586562726412,-0.03807067786026746,-0.03180920859599719,-0.05100530246223788,-0.05326194511549547,-0.061373515208880416,-0.036111960990948135,-0.15548808335363865,-0.10035790581400506,-0.005333569305500714,0.06274437887039966,-0.104672179683391,-0.12380980994421988,-0.0831778941606637,0.04560949870015028,-0.014797216161544202,0.03429551583626307,0.07940379158258437,0.16824099927973002,0.0860367267910391,0.012462762456655035,0.037332531744870355,0.00025787568834311967,0.11622535529774614,0.07288551399605349,-0.009364898618482402,-0.10224606678131967,-0.0598468627640279,-0.0031025365883571793,-0.01868309713458293,-0.03502145092405844,0.010730962236475898,-0.01940126333280932,0.00013425156520575,-0.05045509840068407,0.019680196721910032,0.053902882500691335,0.04875521284735296,0.053123395161330696,0.034918680102750656,-0.07065368612364399,-0.060810721093812026,-0.06747059454154222,0.14306558669200167,0.087371856985474,0.026472402728861196,-0.026507814252248497,0.18743324580462647,0.14772610758263616,-0.025535587669629604,-0.016896701199933886,0.005662050628729048,-0.17189422455765305,-0.23010381867578253,-0.05823649582478683,-0.02066843144112499,-0.055306981711531984,0.05359924164530821,0.06005315332531463,0.00012622429833845673,-0.05221971518672071,0.019941754284524358

Acceleration z :
0.0502151932641631,-0.3810531078223139,-0.24255618075272067,-0.6489941426623612,-0.3580248085321858,-0.22862081357641145,0.050190944738895626,0.38245924829319117,-0.3828843783700838,-0.3558022371118888,-0.7013552482143044,-0.3185822943294421,-0.05357436749895569,0.1300850725551136,0.03361529675344936,0.220323397488147,0.06361558591409121,0.30527638416308905,0.33411472143884746,0.008678253219815087,-0.04239662390113808,-0.05728842871917877,-0.1517864797561895,0.024150261657917872,-0.007708668972965097,-0.19940189775153994,-0.2980737410415895,-0.21606747534302995,-0.1264195723175071,-0.04957998693343252,-0.24310614278567955,-0.16334394795317203,0.1544480362487957,-0.20535556372525168,-0.3210392590275034,-0.2866470139516517,-0.2506317707838491,-0.09543182932236231,-0.035278487575182225,-0.11499403253765776,-0.11671034406940452,-0.07655066717378795,-0.07958263701451943,-0.012003231211594538,-0.08010036814515478,-0.27009362803036346,-0.33959001104477793,0.21059640525449067,-0.12699292435920798,-0.05475267686359584,-0.2611600877293385,0.08846217297283,-0.1736482286181301,0.4329042180255055,-0.0054401789058203575,-0.026471021339239086,0.005262919217839953,-0.052358694399148226,-0.06861709312896709,0.07589536333652212,0.17254907173719256,0.14896019768854601,0.13170694726905785,-0.09371172753148711,-0.12158885509227402,-0.042171468809177166,-0.04131450948654674,0.0057071975240192835,0.029403832521277942,-0.04404227678289171,-0.09029929787265137,-0.2574883952129632,-0.08341064347061328,-0.019529796499747315,-0.36483660743888463,-0.19776647856943308,-0.05269332404783927,-0.2786730759304017,-0.4026724170973524,-0.5236517893886193,-0.12146070780111476,-0.1565440769462846,0.4306209293939173,-0.22750295199500395,0.10909029751974157,-0.44709202559292316,-0.01645941375272232,0.08377159487064928,-0.07853436093744821,0.24479575810674575,0.20130294559989123,0.01544378527814988,0.08559921215660869,-0.24144891363056376,-0.08105598836955615,-0.2303638761177659,-0.325189656705223,-0.01341730268553365,-0.20480636887727305,0.17623545036604626,-0.005022976407056558,-0.020660933121258857,-0.07036555793122388,0.007761139516541152,0.24749290650254113,0.37267442492507397,0.018887250537710495,-0.40877749250680206,0.26067794850189235,0.07209628614739048,0.07571804770797025,-0.12312285972652025,-0.48993258473612367,-0.5901722801310941,-0.35560876036640254,-0.3977821973703801,-0.0989284210001584,-0.10734548141271806,-0.17161738037765026,0.02218277696025325,-0.6289500833474099,-0.5509419108416885,-0.6281187470898032,-0.02652892325564753,-0.031173952032916712,0.24297175754997877,0.1135500899401959,-0.06417084974325261,-0.32793840742409225,0.06397438188965898,0.051409586113924155,0.010209092645195778,0.010736074519722024,-0.19869243430793285,-0.045637907377304505,0.4452495029987767,0.13646110125989652,-0.08422580491155386,0.11529725326793268,0.23918842135267332,0.2546055697856471,0.09634154631211422,-0.02264600142467534,0.017896801028522896,-0.15655039708921684,-0.1957797251990065,-0.017102433497150196,-0.2026616301998496,0.18044397143917157,-0.30091685551302505,-0.20699604267496616,-0.04445016803061589,-0.08988093546326271,0.16864576242202892,0.19414742955574765,-0.03765461015595356,0.055023954385914835,0.21898750924188642,0.18056336003514006,0.2353008575959131,0.2984523833619431,0.058118796862405724,0.19615939043266697,-0.08532171952263451,0.13164848594693465,0.1423201660190243,0.0065043672213651,-0.2915338909440674,-0.07031111063051503,0.12222333533721975,0.1166042533464264,-0.057326331310463136,-0.43419140829183156,-0.3468911278383806,-0.07314511478031054,0.02910250007070135,0.3395682376043871,-0.14374392434498295,-0.5045372660087422,-0.46657114450149234,-0.3122815136848017,-0.039400127232586964,-0.013987171570427016,0.060067003754153844,-0.1939064421404153,0.01395048825527192,0.019953179860836823,-0.042648260574648156,-0.07160551608891691,-0.1165850189229939,-0.5226062623910606,-0.44485232037473466,-0.2396501936455257,-0.20345647037196904,-0.36697365600019693,-0.4366166992099955,-0.2359351186451502,-0.4073181605439633,-0.25822271910319106,0.30852398778218776,-0.12081646421398036,0.026738074777589643,0.1654663834672421,0.0520325448844349,0.16542029756950213,0.17896922271149232,0.11630210119523107,-0.19362722334023563,0.03231158232729649,0.49304147400427606,0.38747006219252944,-0.010862453403836115,-0.1568339084720239,-0.11810220941975712,0.06554747185870073,0.08694731143047102,0.009493189186003292,-0.09023150246660225,-0.41462713185045863,-0.3967800345905125,-0.01874003664483316,0.19158821005960924,0.03688689545277739,-0.06695144777195527,0.02798207207287196,-0.07099229782770854,0.14015047556343488,0.1382454182602465,0.28115154007421805,0.06338190045580268,0.15622754007671028,0.012175469947874079,0.10384410396195017,-0.47246999328173694,-0.18779588683824985,0.12361977639799006,-0.1647493212390691,-0.37623525921180845,-0.5057528523435816,-0.09687940691532566,0.28525910325720905,-0.033946405571070495,0.103933115685964,0.02983592662849696,0.3686445848871022,-0.23183847871497273,-0.1443785233209375,-0.27817862521065395,-0.2126743988386355,-0.1336602093618363,0.03549722890937701,-0.1778926977874711,0.012632897142460568,0.18508891116818413,0.2474163341349922,0.1340741878570523,0.08293724467204883,0.017604347145790233,0.1260078405783046,0.11480823677512816,-0.11817326536197215,-0.2827511938231997,-0.25729665376683697,-0.05095079579602461,-0.0823773457669653,-0.13254366295468062,-0.29520949245058,-0.2609189176509157,0.03299500714734895,0.4304426502175629,0.13372254314147866,-0.09642187240617349,-0.06167700536721386,-0.009444523742931778,-0.04386633112751879,0.051603199856728316,0.09410153056667185,-0.017974403159244683,0.021541985705529804,-0.0236925467689638,-0.0071620559536066134,-0.06154699947910849,-0.08598947184951976,-0.0003470590871209424,0.07616026135040446,0.2103839680802077,-0.13421057325359434,-0.07665235571628436,-0.2364937937075272,-0.31334640296995636,-0.12759623314775526,-0.16182026378354056,-0.11321014479557051,0.017463871237664717,0.07694627889525145,0.1953447861141525,0.46141927816364914,0.49247770264167334,0.1986756841025315,-0.19039912813920526,-0.08290354333184659,0.21191587208891285,0.37899431212898343,-0.11666140862745232,-0.15980660413987935,-0.058242299944488325,-0.017389447444718098,0.057454583632899445,-0.04187101085814647,-0.29807708377614617,-0.1865693224516697,-0.021858410693961196,0.08984722498990595,0.16904225092632694,-0.10679605823587626,-0.0389987935898127,-0.10381577291660941,-0.09405352670648134,-0.24883646659860387,-0.19664540211763232,0.0028350310588575664,0.16625265674041584,0.07291854404939804,-0.10094413560358807,-0.11293431439572013,-0.035095077849272634,0.06461230076728389,-0.17724165000021458,-0.20240592013942077,0.07794568346245213,-0.2328625245330855,-0.09373496227660216,-0.10684645498255267,0.008646546332232536,-0.19003424034956842,-0.024284818140265996,-0.07508232535400892,0.37922406576424833,0.03102227545240894,-0.027143232928821814,-0.07834801718564703,-0.2653854686057195,-0.19337564146565273,-0.054307431013858876,-0.2170349504020065,-0.21205953660961238,-0.3601812559137121,-0.19947039641048758,-0.08382569967806339,-0.18114768099542705,0.12427164616915397,-0.008300657787299132,-0.027760807704739272,-0.1646798361994326,-0.16306982545321808,-0.1755467922484502,-0.1002083047428634,0.112810715415515,0.04531542025755625,0.1011830041270703,-0.05174732103515416,0.19137686886386945,-0.35935967386513945,0.20892759525943547,0.29960179085908456,-0.07873791155237704,-0.04156724670517724,-0.05662918392573483,-0.20146146062985062,0.008045462608456727,-0.15613914940720422,0.3445774075359106,0.26694939345419405,0.20292650994742287,-0.19010876689050346,-0.09462274142918177,-0.3963069371860474,-0.38110560519453135,-0.8332187103524804,-0.19709928336497395,-0.11522155768321826,0.2205855007567443,-0.2898248768027872,-0.322924122926034,-0.07424890217059292,-0.17597599571226163,-0.2733580001211725,-0.3239879892978817,-0.03203167397395009,0.0772767164260149,0.09075907000466249,-0.24953690648553892,-0.05340096542711835,0.3382703798135742,0.011566265708080026,-0.4250232189847156,0.4163578281005844,-0.36447785712908953,-0.07705468943947925,0.051507662493805395,-0.09079434224744327,-0.20290515663214026,0.10349841406312771,0.30830051775723694,0.18379850603146478,0.20672964682374148,-0.06636612673124764,0.030535537681658752,0.041372806411888445,0.293476987835858,0.1272268335797824,0.10755372646907344,0.36615784610528496,0.2728812311885878,0.07748350931080057,0.041112876834068446,0.23184017748171462,0.37803872843720016,0.22052608045339583,0.0734042178076459,-0.04719810133215505,-0.009194549874367658,0.02124765381789766,0.32134017820283767,-0.15585118104498832,-0.19331854098355397,0.24004107439294456,-0.26625881737414747,0.1341390332541894,0.2569818704629317,0.09678613914130255,-0.16126723301066084,0.2927509568499401,-0.15000679326518437,0.12467611705050803,0.2953950598842464,-0.12040688789924606,-0.018999389692273688,0.11923464751578866,-0.1713634969481267,-0.2253677117982879,-0.06199316777745261,-0.12216954105705953,0.005611813712256844,0.008470485370783716,0.2799277156339958,0.1486823762610089,0.15106483268444426,0.20666122123003006,0.1821651326759718,0.2659170364654623,0.2000396476658061,0.006265174470897182,0.04315481272414327,-0.04268662895681336,-0.09325260385344736,-0.03959699694497976,-0.04243041200630832,-0.09359767269776202,-0.15042357563883996,-0.16382732928963378,-0.3759609357824549,-0.28711558131147175,0.10711451306790112,0.16732810395220293,0.051185595499165355,-0.009996263886912493,0.004255039939472044,-0.036615617930458394,0.002645574043007218,0.35188568472266196,-0.05322597418639343,-0.18626955405380577,-0.05460957403189968,-0.310780936396122,-0.03100589970634319,-0.14878780026370658,-0.025560765493370125,-0.16144648030139505,-0.41279290216062214,-0.025586555238463916,-0.12634405939588322,-0.17294145032195374,0.0821665616936516,-0.10964668929348699,-0.029989283709437584,0.029344204438664017,-0.10664952590465546,-0.07463448112180922,0.29877160537894815,0.1578215312698856,0.08741572352666407,0.14399283020528963,0.0811702076000627,-0.10685805408880114,-0.07501394999264739,-0.009629212681297213,0.1838730691050179,0.04091342700552195,-0.009462032570980954

Rotation alpha :
5.958342680385119,5.958354212120881,5.958292287231163,5.958340341248682,5.958421562601518,5.958709775433691,5.958663086971432,5.958557864018557,5.9584463446418905,5.958299563375148,5.958247045187509,5.958282757247512,5.958306028717196,5.958254437204218,5.958203643380814,5.958207520757634,5.958249602427433,5.958324625246516,5.95827311230745,5.958309626139839,5.958312718163212,5.958384107992991,5.958498910903561,5.958596688927295,5.958606901931537,5.958649655719395,5.9586434518229785,5.958594316876793,5.958523977656806,5.95844092898672,5.9583625328452845,5.958346104591664,5.958440678452096,5.958450240213922,5.958574262602547,5.958935594740013,5.959222941922496,5.959398020030394,5.959249042716367,5.959145790757242,5.9592279501949985,5.959366132515377,5.959336098474168,5.959416269520055,5.959415805225635,5.959431139693806,5.959576964404353,5.959507072422091,5.958903531620974,5.959276416412089,5.959321145749665,5.9593784201006255,5.959366937210299,5.959420585916186,5.959192127853247,5.959181706704613,5.959265734862725,5.9593425352205225,5.959404521231051,5.959433323756093,5.959329045107584,5.959150229592296,5.959135813837214,5.958907388412213,5.958839884500279,5.958895864532166,5.958725312653287,5.958662417845783,5.9586554979823845,5.958575474535864,5.958616660042245,5.958888309159914,5.959007832472675,5.958944095827269,5.958946163095707,5.958856977026651,5.958593408083393,5.9589192772891275,5.958863079464487,5.958720958549102,5.958537384420709,5.9585171061056785,5.958505472964321,5.95867778744792,5.958627048987909,5.958457249740613,5.958564025930996,5.9585026466069255,5.958341977115257,5.958522555544198,5.958674944575477,5.958624425567147,5.958709044975467,5.9584927024909735,5.958328755719056,5.958409737151992,5.958434329345317,5.958304349177705,5.958287673217994,5.958152728213462,5.957577503788722,5.9571313026344015,5.956391059916903,5.955733743988892,5.955640849932056,5.955398405210492,5.9554850145182225,5.95581926443712,5.956330032413536,5.956599764641452,5.956679839475053,5.956668866850449,5.956529737882594,5.95647427306936,5.956558709643934,5.956617138554792,5.956936933579266,5.956879998065831,5.956448060185436,5.956122223844518,5.95550788849479,5.954089593106209,5.953952828676573,5.954153904928882,5.954124900029938,5.954272219601374,5.9542745697114094,5.954130030005686,5.953997654947278,5.95396522775455,5.953265984645936,5.952504681779454,5.95162430997668,5.950596791550196,5.949382057949397,5.947123735316138,5.946140333451483,5.945179916210158,5.944346526350483,5.943551996687956,5.9426003236165075,5.94185436395478,5.941370793885776,5.940762714841516,5.940505784479115,5.94045139026908,5.940306360699803,5.940092850015495,5.93950447605323,5.937893465266693,5.937175663353847,5.9366397362970496,5.936377296028214,5.936176211903322,5.936035724053516,5.936022834812402,5.935967185103332,5.93615663730517,5.936127608951817,5.936344451880535,5.936632546713988,5.936799748550106,5.936845919712527,5.936460205922697,5.936764037341729,5.936473342244687,5.935895704775807,5.935349010955606,5.93505118968177,5.9350080855439,5.935436227333421,5.935873914795253,5.936641217191494,5.937809718329518,5.939346676731582,5.940689489952514,5.9414115899151,5.941363836093434,5.940815505089981,5.940894598706663,5.941165342757543,5.941694305496706,5.941919047656863,5.941965948313316,5.941888904963824,5.941924193629975,5.941684721670844,5.941518191854584,5.941248548732942,5.940629677932314,5.940357858768771,5.940365599862078,5.940227791476634,5.939710358761824,5.939318161006354,5.938954384185308,5.938594197509674,5.938347251869464,5.938045948383376,5.937877509573135,5.937946356297863,5.9377883337511275,5.93749132522243,5.937407257746865,5.937209154795042,5.936761751877182,5.936281348810738,5.935596484807671,5.93528719652345,5.93500692770067,5.934718141048488,5.934326813763371,5.934235838824633,5.934204601392043,5.9342130231240455,5.934179623935352,5.9340393363299455,5.934084308967712,5.9342689664739,5.934697240235764,5.935080781248964,5.93525489913974,5.935858174688786,5.936472263801117,5.9369359901892835,5.937325618870944,5.937836014587196,5.938499512423827,5.939187637721203,5.939604169709364,5.939887096393448,5.939792332802412,5.939853304886855,5.939928525584923,5.940010272942781,5.939993545111543,5.94003101752225,5.939910575191522,5.940001911212668,5.939869152244299,5.939750548144685,5.939769107232694,5.939746817742375,5.93966383199352,5.939360902180534,5.939283821779365,5.939097320435346,5.9387181597894365,5.938506582402752,5.93861065062991,5.938567290069798,5.938733585147432,5.938739073672959,5.93862911837145,5.9387147776388804,5.938646591407608,5.938545507854019,5.938704732950406,5.938832746086587,5.9387321726321876,5.9385981010841915,5.938475334486686,5.938403382688173,5.938196700541174,5.938023630939023,5.938039007112452,5.93813019042372,5.938050781170641,5.93809377738509,5.938018587650481,5.938215716837807,5.938325145482231,5.938153555097484,5.938104056509663,5.937975177511747,5.937851427722837,5.937719358524645,5.937433464252989,5.937544615216643,5.937534358864405,5.937482235660472,5.937392082308439,5.937293583367981,5.937341504987465,5.937275776475629,5.937123619065006,5.937053144804182,5.93688686002022,5.9366452845317355,5.936577553546799,5.936343998574873,5.936135945641989,5.9358672847399045,5.935642517643488,5.93547529655388,5.935542375486806,5.935669612409781,5.935731712888218,5.9355951723061455,5.9353166502646575,5.934971198581214,5.93462324086461,5.934332634481484,5.934106917910957,5.933909199890032,5.93361277506862,5.933202485615373,5.932847698463152,5.93247010320705,5.932466877892542,5.93269154023283,5.932871212697137,5.9331095557627505,5.9333165671165435,5.933409297404422,5.933921665813826,5.934427818845925,5.934851512246316,5.935322003366886,5.935663777596314,5.935627798669435,5.9355652692560685,5.935488945985322,5.935438312592371,5.935313747424501,5.935356008623869,5.935181589140203,5.935003445785604,5.934485488421363,5.934181274569694,5.934312723931603,5.934491843924024,5.934388338350871,5.9341936888951645,5.933807437661385,5.933513767168507,5.93327379212501,5.933376029115577,5.933607699713827,5.933584470303256,5.933784496336845,5.9337791591221665,5.933578787135534,5.933269026227095,5.932764551842888,5.932251614541956,5.9319476418361985,5.931927359972791,5.932034203330218,5.932245077221108,5.9324088810284445,5.932938143191962,5.932888060055362,5.932743582058723,5.932742207951794,5.932873288659053,5.932879036563784,5.932928439707894,5.933024134187532,5.932971669178255,5.93281302245338,5.932546518130508,5.932281338908606,5.9320787901303245,5.931963392387757,5.931929296432531,5.931606927276969,5.931459137320141,5.931418792300617,5.9314674866462145,5.931510602629545,5.931627111216849,5.93172882339065,5.931718581293192,5.931646285645792,5.931661752187524,5.931625800277445,5.931634102494707,5.93138342341464,5.9310741651385435,5.930179180332467,5.929262375337235,5.928391375770584,5.927438419662664,5.926762814474853,5.926376346352307,5.926412890139997,5.926541577917326,5.926718099549765,5.9267604541055725,5.9267704143470885,5.926523436612617,5.926497979952642,5.926228363316932,5.925651516473986,5.923532197557855,5.922508512374654,5.921377170514082,5.920474451045682,5.9195454898356505,5.918724559979629,5.917922488210677,5.917190398670902,5.916708296397515,5.916745035033925,5.916878579610621,5.917097704401996,5.917564345208878,5.9183509634608145,5.920625162652363,5.9215249361531255,5.922178325397319,5.922696594032526,5.923073269963807,5.923102030872101,5.922669313212393,5.922462101950374,5.9224238425884135,5.922657833987305,5.923048965276139,5.923524235036656,5.923906455545754,5.924320155686685,5.924783103535776,5.92588446953432,5.926338505225311,5.92676600944824,5.927406602289736,5.927965935974744,5.928214377035978,5.928620387420015,5.928799213870871,5.929025699213343,5.929064537336395,5.929047615800892,5.928985119247499,5.929028685596838,5.929068670384732,5.929177533162622,5.929227196925348,5.929257389264156,5.929086299040454,5.9291019459359156,5.9291619831149625,5.929150441944751,5.929049253222404,5.929008639102596,5.928681803943977,5.928165728556012,5.927563404599102,5.926920029540262,5.926346142180092,5.925824029025009,5.925275030152169,5.924759955332134,5.924197794137068,5.9236650798055654,5.923112704928399,5.922595312586224,5.92216893989723,5.921751197671768,5.921302135599546,5.920625248707177,5.9198903494468205,5.919545412421306,5.919676091190213,5.920190934007256,5.921081562768818,5.921546803201434,5.922073651077829,5.922647563850953,5.923507319811256,5.924565936238125,5.925543809495822,5.926253153041883,5.927025581199481,5.927395995995411,5.927811499771248,5.928020046004009,5.928431655085187,5.928545981998113,5.928016208686591,5.9274552480602365,5.927096811332745,5.927023517991248,5.9270194863177075,5.926721690750739,5.92651358999605,5.92646861916851,5.926426892540428,5.926738075052143,5.927294825227635,5.927718351342165,5.928168039686362,5.928574751110235,5.928591356972907,5.92849266265854,5.928432403822339,5.928250286947867,5.928048363826766

Rotation beta :
0.00904712578612264,0.011493115270046237,0.012872486542165421,0.013045901795796974,0.01312948371965863,0.013209932618705338,0.01281092640825207,0.012754284577847311,0.011617743983042488,0.01008820109202075,0.008654917212283196,0.007687841170121501,0.007305027492039084,0.0064491916610619855,0.005675229319507807,0.005484517608221423,0.006161048682620835,0.007606668229130231,0.009843609297496328,0.014623914233339806,0.016740951956072597,0.01867150874633147,0.020304088545231486,0.02162169571652204,0.02286404760731234,0.02413715115257131,0.02513298840374422,0.025574117140866066,0.025438487510529722,0.025065006010110323,0.024627947456501983,0.02404120850084409,0.023207688724029098,0.022149682887171653,0.01942658100114149,0.01845987856387544,0.01758052877613207,0.01677542501407294,0.015557607334738006,0.013998482458164532,0.012395881566887394,0.01022706064870635,0.00824361658908398,0.006322376985940488,0.0035522297556824277,-0.00010759799615460525,-0.004259430823733667,-0.007890267449668855,-0.009307772339405225,-0.014525116040921994,-0.016231919402701977,-0.017439813840071414,-0.017509808783096326,-0.017098942785284958,-0.015767560150256096,-0.014882870383690293,-0.013534554912607464,-0.011413598847583334,-0.00868913965338422,-0.006016241798009069,-0.003613944081484599,-0.0008464686605373654,0.0013093920634963503,0.00329416367469698,0.0034582605715585855,0.0032862564433508348,0.002826218684626709,0.0026282416503470647,0.0026096644901784554,0.002929401902904325,0.0038018211775427,0.0051517728177482075,0.006626789350881766,0.007909461106789027,0.007451362214531746,0.007111061890505809,0.007148931213111189,0.006765942380098126,0.00798743674734804,0.010936270507701185,0.01431377366643303,0.016986877163116147,0.0194357804632868,0.022590015739303325,0.025054800242162868,0.02689178747303316,0.027829168157438907,0.027948426682373163,0.027856801718560587,0.026801937664243353,0.025805431160052572,0.024026957478159174,0.018593891743408336,0.014848368927585594,0.011074051958655455,0.00833752829294655,0.005418969464656971,0.002224363887558036,-0.0006409966633048335,-0.0029364659310641547,-0.005470600602605231,-0.007697456712788606,-0.008886044319290633,-0.009679553509037831,-0.009760663443401308,-0.009527123490375135,-0.009054146990521412,-0.008240829199019358,-0.007793990253752877,-0.007366650820688174,-0.008192322793173976,-0.009756627165476511,-0.011911999579936893,-0.013112131581785789,-0.012858873047502982,-0.011738827457576729,-0.009710501101063097,-0.007829609058438797,-0.005978420973175466,-0.003809463450625276,-0.0017486437226120004,0.0037821099285796447,0.007174475506214783,0.010798928773886255,0.013433202081430593,0.015398141029647117,0.016805786673394777,0.018074116165725802,0.01901098299485727,0.019143721736064767,0.01915053248181465,0.017866945889578212,0.016959274566337484,0.015988020409795693,0.01387954029220802,0.008846341767207921,0.005424227473189718,0.0012235602294492194,-0.003067191154565176,-0.006405626287751583,-0.008924763592947976,-0.01070287932549757,-0.01127664726613772,-0.01065168658653547,-0.009328685798248066,-0.007897864589815081,-0.0068536609327772575,-0.006315935278897949,-0.006264890067444672,-0.006111960585261721,-0.006077818863602772,-0.006203775068205172,-0.00631097557333669,-0.006667467650272676,-0.0072245097306924974,-0.008011982055582716,-0.008579312053212296,-0.009080471557320944,-0.009250423021926876,-0.00945606774625964,-0.0103268365636445,-0.011750052595289766,-0.013125035257616139,-0.014574041584499318,-0.015741584224137715,-0.01658803676584909,-0.018024554019267645,-0.019673469053231807,-0.020306804427839907,-0.019978402552400795,-0.019422693889981024,-0.020001662597869084,-0.02083315960193331,-0.020353652992601737,-0.018621711578331285,-0.016158591715679176,-0.0139559542865236,-0.012289059125029488,-0.007067021300945757,-0.0033760179798893756,0.0005319633131970449,0.004072144419037102,0.006707856451937374,0.008096127025654532,0.008911493054530473,0.009580403280695947,0.010132440820490427,0.010626461882111428,0.01024516896799615,0.009659987683605351,0.009449984926472187,0.009539851019697832,0.009244066201492275,0.007091187278657617,0.005674211632907902,0.0042793326169611404,0.0030080998910409686,0.0020501492290845324,0.0007302242073005654,-0.00015743675662968553,-0.0005243749349599642,-0.0012267569796349377,-0.001995412863587836,-0.0029036047718990995,-0.0037375078731757506,-0.004552750015165761,-0.005527954729825951,-0.006831165841442002,-0.007371715449642426,-0.008315511519332986,-0.010131035446392232,-0.01236774748216137,-0.014023412904004912,-0.01488323879475107,-0.015377312791355931,-0.01621746750227983,-0.01715819366329506,-0.01741338465073807,-0.01661218591944843,-0.015376089572929953,-0.013668735701786179,-0.012107436099540542,-0.010460629947146267,-0.00993686151823371,-0.009331947601118282,-0.008804860767859943,-0.008256863229073274,-0.008058477918318315,-0.008008707526490298,-0.008597751628656908,-0.009472989621390789,-0.010313110706409855,-0.010938269128423732,-0.011479931100661258,-0.01184570006290501,-0.011775379347217993,-0.012167009700590372,-0.01234663515245979,-0.011719648731696427,-0.010569650706203446,-0.00903353225597852,-0.007537228981257152,-0.0062001300580217245,-0.005482540612393968,-0.005927758525359126,-0.0070028622591844294,-0.008192056284478737,-0.0090620014763912,-0.009730320633542294,-0.009867818406392361,-0.010731152113994058,-0.010799187109621355,-0.010315108644497424,-0.00936071333032094,-0.008493815111993944,-0.007611345436027636,-0.006942184228675824,-0.0059788361117391236,-0.004715499301106319,-0.003789331420725993,-0.0034362326120105204,-0.0032337741801485177,-0.0026108067341740725,-0.001080347180578491,0.0035867679042417434,0.004810105860212724,0.00499533352186433,0.004480814642496711,0.0038386855706957763,0.003578620957394023,0.003072906608629903,0.0025787610081938655,0.0021285644143815433,0.0018779363756598053,0.002142424189758914,0.002083772239142013,0.00204246782897449,0.0018640559958097368,0.000957840831174604,-0.0030892025503918095,-0.005127931533578476,-0.006290113445772005,-0.006944293678659099,-0.006308745742179498,-0.0055966096735023604,-0.005470050862285835,-0.005052816950804347,-0.005113680595937032,-0.00484622246804195,-0.003755291267702105,-0.0023775115730546186,-0.00036930577530820306,0.001726326715508132,0.0037785499001482714,0.007262070630362627,0.009152796363835924,0.010326837543149505,0.010507233020296325,0.010287386205645807,0.010474679399047835,0.011301055256979952,0.012095899117571089,0.012477806753036936,0.01257350600350942,0.013043492443410711,0.013668952251364067,0.014378014465000564,0.01508143845965061,0.013250043888277966,0.011564380813409336,0.00982714433723187,0.008219494645548404,0.006097177993104403,0.0035570521275188993,0.0011481352524804454,-0.0013739370655099414,-0.003602197873992154,-0.006244581870844899,-0.009172246186427584,-0.012057027912634079,-0.013819646626914388,-0.014552462509585624,-0.015060592246972062,-0.01496645907811344,-0.01415749742128041,-0.013159133564943044,-0.01262235006311341,-0.012018177343588581,-0.01087881097489956,-0.00995647764524806,-0.008449919469549625,-0.006721497250296606,-0.004338122849257601,-0.0020242231870657716,0.0013008468634100193,0.004295571147545988,0.006153668485211824,0.004479684082283903,0.001863925341614597,-0.0006753879231794369,-0.0036738101619799768,-0.006809743466490323,-0.009967770429955489,-0.013298589132637546,-0.015776363110870318,-0.01730139967383857,-0.017773004695413035,-0.017395510072538374,-0.016823965629242696,-0.016094046149146272,-0.015492528539002159,-0.014517416614358299,-0.013937444745876994,-0.013792551634464748,-0.013473736216956736,-0.01336886361704799,-0.01343335869000618,-0.01354753281320737,-0.013899958006438402,-0.014180554078215921,-0.014533513714356324,-0.015038312432205166,-0.01566455113310641,-0.016387349303064028,-0.017034068340961134,-0.01774347559688302,-0.01857888651399867,-0.01843521755436492,-0.0178167834045393,-0.01767146243057589,-0.017677951237417357,-0.018007152186435515,-0.01806877427370707,-0.018241460885267277,-0.01831289931060664,-0.018479599494733,-0.018087008111931833,-0.0176668769447531,-0.017044244409973285,-0.01565247530712992,-0.011032925490683352,-0.009762202133284267,-0.008824027861810236,-0.008631209461421088,-0.008803587590436411,-0.009712817256894142,-0.010444047649807244,-0.010855864554349216,-0.011401808568392995,-0.01120793425215194,-0.011276525695506735,-0.011313243207855097,-0.01123107560675566,-0.011617137644215597,-0.01224327797965064,-0.012818477619138775,-0.012136988129108116,-0.01233545411294113,-0.012186680487634324,-0.012037309909633333,-0.011888429115533235,-0.011339348594721172,-0.009504237916650858,-0.007736193162948485,-0.006801297673580318,-0.006418745645594268,-0.00603279096492676,-0.005700771788422531,-0.0056276739772989,-0.005593930254009522,-0.00576436210596079,-0.005688266486184277,-0.005511989884741949,-0.005934225738911766,-0.00654373851254406,-0.007037293385116626,-0.007622591753509307,-0.008205257150797486,-0.008395093594397494,-0.008627455220824656,-0.008603621028561518,-0.008902841442006162,-0.008613475591166587,-0.008637252249384782,-0.008868112146874274,-0.009182042573118757,-0.009164164202489439,-0.008626699213795833,-0.008319575592331594,-0.008238650559428871,-0.008054470976720664,-0.007701244076836951,-0.007337556250757272,-0.006870596924015196,-0.006405747537166468,-0.006097397971243114,-0.006089751851008852,-0.006362605175793929,-0.006690734099863482,-0.00733068083154838,-0.007851871542349396,-0.007947758885217303,-0.0077963980705565835,-0.0075554260041507115,-0.007176719460474583,-0.006654371677919827,-0.0069378160060319174,-0.007700320883438351,-0.008814980872282979,-0.00930043492877019,-0.009207248391186255,-0.009183817755327854,-0.009463646844339915,-0.009733537080000663,-0.009961247221124082,-0.009557631477055883,-0.009058915927830823,-0.00808774574861502,-0.007426729940274256,-0.006706497071254652,-0.005894148282088708,-0.0047651517579676795,-0.002989503161179371,-0.0013364240264989,0.00005659053076769769,0.000901102689169666,0.0008432973752832871,-0.00048607832064247327,-0.001434964207785548,-0.002674670447481121,-0.0044655757715647065,-0.006684968339270786,-0.009188696529433051,-0.011650058206121819,-0.013729941225387114,-0.015246838065390898,-0.01673946490844298,-0.018260368766364762,-0.019580799838448373,-0.020469365048829662,-0.020782338925224166,-0.019454955891084463,-0.018236946244248837,-0.017107308886934326,-0.016223043461891504,-0.01567780886527124,-0.014721816941038338,-0.013270188264206983,-0.011778798402399225,-0.010607522797905193,-0.00951761260618194,-0.008388474059104225,-0.007876417749655296,-0.007722904701473998,-0.007318274564390556,-0.0065583712359153536,-0.006296978312380035,-0.006319568228448332,-0.006621974619737248,-0.007381246797531874

Rotation gamma :
0.015368696664876919,0.01480103395323829,0.014114921323070942,0.012990454684768912,0.009511217609480602,-0.0018480818646703968,-0.008204497040569922,-0.0073420522464239515,-0.006351066004466987,-0.006593730165432516,-0.006924018221538922,-0.007984375779200201,-0.008339478888741501,-0.008383513802697817,-0.00837787311613936,-0.008966462288623377,-0.00895072926678082,-0.009567289034055244,-0.009566804563864311,-0.009564496534495611,-0.009798091557708746,-0.010223669163850825,-0.01084370452474241,-0.01144339937074356,-0.011571440992077752,-0.011688695838559917,-0.011421773229349652,-0.011731313083149352,-0.011894848290831697,-0.012039524406464767,-0.012052835069457165,-0.011925263853279511,-0.011329431118793459,-0.008337237836979223,-0.007966404957563086,-0.008633779749745918,-0.00924063292465957,-0.01038255212827812,-0.012139798649569692,-0.013602668949702704,-0.01453098771652207,-0.01476848067948963,-0.01420212098918698,-0.013424929202843217,-0.014492545767081411,-0.014599961937996207,-0.015450146640069369,-0.016185539760195242,-0.019788954192172033,-0.025310538044725703,-0.025106154143861314,-0.02523217618820724,-0.0272976945889616,-0.029958016775643474,-0.029859196094473968,-0.030079857169103757,-0.030172542564223137,-0.02956317338603396,-0.029275612447919194,-0.03203267530127679,-0.03243001398369171,-0.03383231280714881,-0.034399357198276276,-0.03401182017485525,-0.034573172044257215,-0.036003230641556125,-0.036157696443594366,-0.038921605046782506,-0.04070163413172629,-0.04281025517588055,-0.043494605872765976,-0.04449989252909105,-0.04719739853913575,-0.047354335256850476,-0.047947253856082964,-0.05002392008715545,-0.04925067395296551,-0.046821116078470726,-0.04844730231526531,-0.05456947132807517,-0.061276274160286026,-0.06939188059651379,-0.07452283649623911,-0.07610241580798,-0.07725290323075687,-0.07720243393460004,-0.07749626891253145,-0.07768487079125223,-0.07666069216526344,-0.07628687890080119,-0.07371342293277669,-0.07615140575567304,-0.08208516909278271,-0.08184129792456384,-0.0844720213180463,-0.08329385339148769,-0.08475096170753335,-0.08462126809738513,-0.08643701930845227,-0.08631338019561072,-0.08659975018268157,-0.08826826597079412,-0.08818571297010241,-0.08703698586661768,-0.08875206767231816,-0.08729091592833478,-0.08490958583917899,-0.08354236375338933,-0.08488283664524247,-0.08351610909715998,-0.082295700455927,-0.07886428025378882,-0.07525561515869542,-0.07338578029636945,-0.07205652112215857,-0.06962851368364834,-0.06491553408759312,-0.06136753155479909,-0.05865879902526076,-0.05505095269542627,-0.050652820579063396,-0.048597375299702934,-0.04652465061861184,-0.045380492502292105,-0.046691100213523316,-0.04736675138161098,-0.04717848278733032,-0.04493360219546325,-0.045799050321225374,-0.04703402090916425,-0.046366992942375646,-0.0453315718263561,-0.04309165262142908,-0.041141282907523474,-0.04195944933974286,-0.04204535856122347,-0.03910118655280273,-0.03859972112262682,-0.03952411796205022,-0.03835735398435782,-0.037433204264107546,-0.03598033147131121,-0.03457794388546008,-0.033913369797096526,-0.03237705834117436,-0.03140531987135198,-0.03161730035723623,-0.03127229664597428,-0.03213794457500252,-0.026921177844800522,-0.026555035280333237,-0.026373838141110047,-0.024922835363600775,-0.025022514256336365,-0.025219089529838805,-0.025034763081872413,-0.024628054544798727,-0.0246109896697308,-0.024411291455855792,-0.025674925931885303,-0.026497437885533565,-0.02536451583918385,-0.02437042648686847,-0.024226367379850653,-0.02655240708453688,-0.026429598961316136,-0.025249916299865584,-0.02506646922109364,-0.02612803695760347,-0.02539441153597967,-0.02304270029944108,-0.022094327763521604,-0.021680372383868933,-0.021135325338348634,-0.019496087444371542,-0.019104585634130148,-0.019412795906900975,-0.018041732850036466,-0.018398341228111965,-0.019635881932268916,-0.020603249542836717,-0.021224241814032097,-0.021395517683123335,-0.02239673378166497,-0.022261793181816567,-0.02328437453783728,-0.022973366629889472,-0.022311306942798117,-0.022157973759907103,-0.02143769426647394,-0.01877777424933327,-0.01646463825782858,-0.015366641141700962,-0.012369673774039374,-0.011536541307957877,-0.011358297747597208,-0.010206706274417022,-0.0076006061951138385,-0.007066941230464243,-0.006029608562082288,-0.0034264491683178434,-0.002844593863414935,-0.0016464539065062273,0.000015946621315024897,0.0014561785603556395,0.0030416311550657085,0.004858882865679414,0.006641420340150647,0.008354563920678059,0.00929428217173908,0.011385159343892911,0.01304953398994282,0.013128992566055328,0.012349128986948048,0.012610617497736575,0.013899227409928158,0.013433158580190292,0.013605106554926052,0.014441298875536293,0.01337323495934642,0.012493402683518418,0.012164720578538108,0.010918599411509928,0.009864503100163078,0.008095615301334744,0.00520537720058235,0.0022556852279723744,0.0003470885814457221,0.0006852912238439468,0.0005072183451048578,-0.0007854450642392982,-0.002128461089955952,-0.0018225002082477115,-0.0018312989163202609,-0.0035229523887530165,-0.0031674405535240466,-0.002051779523984795,-0.0030979286046139234,-0.0032719210312846486,-0.0048354593688211935,-0.005505005191504188,-0.005513055281905044,-0.0059879345788600895,-0.007046843210339338,-0.006215679437469602,-0.0047072374085949395,-0.004472809713531496,-0.0031474069155081655,-0.0022138676638388047,-0.0010389453460358388,-0.00039974328102405606,-0.0002469539680561837,-0.0016590418195119067,-0.0025574740389638483,-0.002465034104681916,-0.0018243306999856088,-0.002256037928739699,-0.002357506666732091,-0.0023736962971129105,-0.002962737083209009,-0.0032344841881034683,-0.002652269995303952,-0.0027170816043695987,-0.0037318279178147774,-0.001664259942102815,-0.0004376872301201302,0.0006029177975134819,0.0006572723436558166,-0.0007352697305292976,-0.0006286134825124916,0.0012097182830058796,0.002149071329493996,0.0009142637184396979,0.0001125962096760832,-0.000042780837914573325,-0.0003144798005841364,-0.00011669763425248083,0.0004171754328214746,0.0005207449666952139,0.0007837727550428389,-0.00017641260413209494,-0.0005678643571968556,-0.001475001797913229,-0.0006801788395602235,-0.0005220979991644917,-0.0013870340571838428,-0.0014346140842958516,-0.003478111498551044,-0.0045354299191592415,-0.004181891442677103,-0.003970023945092986,-0.003537038397248127,-0.003764949665606384,-0.005015834378856857,-0.005672480777064165,-0.004948771919677682,-0.005319446640178191,-0.006167649310340093,-0.007452586093705999,-0.007424981689865256,-0.007501696894059268,-0.007835805491431447,-0.008101344630733517,-0.008640041793057546,-0.010160723382612832,-0.011186485697684304,-0.011636422406004265,-0.011834632129656568,-0.009669221712345214,-0.008926840438247898,-0.008981695442250527,-0.007537996737534343,-0.006418037137314392,-0.005263361623252297,-0.0044702129157045585,-0.004133049692948356,-0.0032966486309779735,-0.0028398923722927727,-0.0022822369368743285,-0.0034089279684792607,-0.004928933407000389,-0.005594514116376761,-0.006217839390817349,-0.006179091116759857,-0.0059272435283270015,-0.00512233719834442,-0.00548979409766337,-0.004751876759402919,-0.004824858108905826,-0.005109253635314971,-0.0050535570794925724,-0.005335371654204329,-0.006578675319804301,-0.007972013454354568,-0.007630070649594762,-0.007173632098976552,-0.006811356354821938,-0.00568529541942846,-0.004171186289245357,-0.0033972613832716036,-0.0020878401019400108,-0.00022712854776825092,0.0010691034873004245,0.0020020519289482815,0.0027527679594952087,0.0032475393388091906,0.004532945397088255,0.005814762486632161,0.007648766300096824,0.009709331472962823,0.010556457149963117,0.013033642529897044,0.014777748813075068,0.016839538051403258,0.01816941991798001,0.02014003974639156,0.02122507891867151,0.022841027845263928,0.024604724988085587,0.026044647687108274,0.027007069764069306,0.02798275852696353,0.029490739679694462,0.02815854457210673,0.029396133462667784,0.03262743616867539,0.035582172459275,0.03635886327464778,0.03661865436926592,0.03747301587407599,0.03796167208824193,0.03690995516066416,0.03678588682008626,0.03746334194963727,0.03846673069829116,0.03671404290734744,0.03653434374871405,0.03732152275217027,0.03816861985336522,0.03500771021420861,0.03623463108583887,0.03695606511204584,0.03878884022706493,0.039685994981263274,0.04008846274843774,0.04019182237844368,0.040683705964321956,0.03917901075500317,0.038595276975983465,0.038853872704498874,0.0399576075242613,0.04075450413324054,0.03935250426561265,0.03866584152711728,0.040142899777618965,0.04242551783624285,0.04124524835251312,0.04162070190036127,0.04062762754555328,0.039469116017907056,0.0375239899286049,0.03439720327682638,0.032861023510885684,0.03302054486465003,0.03182904147997797,0.03081616594952464,0.030917594621477893,0.030194361034275547,0.02788393435050351,0.023904310531532674,0.023227758397625344,0.021522841990489976,0.019949404695302375,0.018514651149841334,0.018145929801709194,0.01883785142684323,0.018938134310105638,0.018678960210841252,0.019102284220671527,0.019929769062957323,0.021389445132067485,0.022676207217611717,0.023809789829031366,0.02414365572377371,0.02759361560547815,0.02825043317930817,0.02822327882263176,0.030719476206662457,0.03235836530275907,0.03333789477940586,0.03453255951299147,0.03484251891445313,0.03442869711274974,0.035340512251635814,0.037252825908766225,0.03775889874794289,0.03923742666422319,0.03970204936682813,0.04048914283802427,0.041132057230786785,0.042100715566628845,0.042872758361127646,0.043657872076580596,0.0437215769381924,0.04339873485882421,0.04414459172285427,0.04413139328118023,0.04437734301488356,0.04432820231101049,0.0444708364968806,0.04527305281826587,0.04602884689480309,0.04426650827286318,0.04225670823989912,0.04097868209089704,0.040672419870240964,0.04057232460843008,0.03999655508390238,0.03933353218939833,0.037379796422977334,0.03567070744616012,0.03611430415766587,0.03599328078606589,0.03365676181322289,0.03257946650023209,0.03264128151170521,0.032108693834438665,0.032002413309870435,0.03203636614457632,0.03177710306394501,0.0316206898169927,0.03087568918140808,0.030278501508426765,0.029492667167290567,0.02960437496629944,0.029540501984568816,0.02982364480578747,0.031201041062083438,0.03190840636284928,0.0335571292857044,0.032611261609345826,0.033118730312431933,0.03398542578816631,0.035076591690843664,0.037113661210839415,0.03842075886022151,0.03859398697354722,0.040202215203479524,0.041426132883445425,0.04195906136857318,0.04397028836522875,0.046392865662207426,0.0471041877050902,0.04739824203784267,0.04796068030250765,0.04876146754272651,0.04912204415564558,0.05060720207917692,0.051576578300763246,0.0510714679822671