Acceleration x :
-0.05769362568631768,-0.0005634895548386339,0.012172252794192172,0.0024036185132950776,0.06523836937691084,0.026324397676473016,0.04848583502117544,0.01916852315601427,0.04264580375608056,-0.02320364444059087,-0.013528027342789573,-0.045996981914085334,0.005023359428724506,0.006439054891702835,0.03835851835831999,-0.004748465462624154,-0.011333995888743084,-0.004046920463991409,0.004131296255849883,0.013960703688609646,-0.007466615832663955,-0.03406012247807812,-0.017147972547262906,-0.012201135253737448,0.027538424525177106,0.02258080211780034,0.02538926083438564,0.0042335750284575625,0.01883245389384101,0.008893469727184855,1.2293123701140283,1.1814107281889765,0.11806752169886603,0.3570944323468953,0.24189826483326032,0.1533073052484542,0.2324077847692184,0.187744996901229,0.11258599414839408,-0.12103755048559978,0.07441542241049465,0.189994584192615,0.1553419894138351,-0.052272984310495665,-0.08971584456204436,0.20313805207256228,0.06708159979053308,-0.08280601037465966,-0.031065180729085113,0.06196739858195651,0.021731779506453313,0.01510210825909744,-0.10935778021635487,-0.12807091972110793,-0.1866583524419926,-0.11250791481034829,0.031867729283624795,-0.04862677786182612,-0.21736275758426635,-0.09806469857660122,0.010503553538635605,0.04418811042779125,0.0922510255954694,0.08280166299310512,-0.010636759455758146,0.18611043623564763,0.22448510201117022,0.28388852729005737,0.1171815326445736,0.09036586030283943,-0.06510033087939955,-0.07912818951159716,-0.09768941725711337,-0.05213255749307572,0.03253805716008646,0.00996693276115111,0.016669310768402647,0.15882358445189892,0.22363095113355666,0.009717607917380518,0.040408980048145166,0.22728848726041614,0.20075318449633195,0.283142914820835,0.06561108884655405,0.022918874965747817,0.06377361232028342,0.04684519624125678,-0.0628476885478245,-0.13420361378984524,-0.040796006604353896,-0.20716829396933317,-0.19067279398143291,-0.1522598602884449,0.012406302437017439,-0.021927080599556212,-0.030852209265262352,0.0718341463461751,0.03440616172006121,0.08470964290574193,0.015090119852137285,0.0059576891282806166,0.1933134264170192,0.017371497371140868,0.03145551120394375,0.11117145117535256,0.14609105372671036,0.1120515128123574,0.09107571647209114,0.02290789691400714,0.08038239082377403,0.08803903392362408,0.1279051164338365,0.08645374662671237,0.0844575039087329,-0.05949326811996288,-0.06444372556761373,-0.004444361385059892,0.010961380308732623,0.08368841009922325,-0.10335544366217218,-0.09508679701066576,-0.13713278997638262,-0.04366398608898744,0.04925741304871626,0.06431172865182161,0.002698212122886616,-0.043558735616225745,-0.03564471793853445,0.29589130070228126,0.06668565470892936,-0.05462813716847449,0.06421778045778628,0.06146547694180626,0.08378257292238996,0.09008264118097722,0.0964971843983978,0.06275564004993066,0.0749112659363076,0.046914526017266325,-0.003178614338506304,0.019744633410382083,0.09943341138022951,0.04107429382277187,0.05088389543911907,0.0745821253134869,0.1314605530262459,0.05793040728399064,0.04049021945765707,-0.0410592104180716,-0.046554994822759176,0.0767491671542637,0.13453461757618934,0.133362916048849,0.08043185598868877,-0.019565849627240093,0.001909174358002201,0.04932151409375947,-0.03068154257320566,-0.0812393821124453,-0.0053187250752846004,0.029282151503523344,-0.032642003875039516,-0.0420154197309399,0.027701654546160717,-0.008317039241586463,-0.12022153966128825,-0.028398053012217858,0.10064858672311529,0.016973162827984195,0.02094842199286213,0.06729204137055203,0.1806754238411784,0.050547096666228024,-0.019039333543594692,0.14875659227469004,0.14176098863314837,0.042209261802607215,0.0013067246568025438,0.10246387425046413,0.07629426756019238,0.12202599526736885,-0.017440601101575883,0.04146731629492715,-0.024610821524506898,-0.006805838381726061,0.05808187608523294,-0.04440686317842919,-0.11891646667839958,0.021452352927008176,0.05126031840292271,0.05626393994307145,0.04246506319458131,0.03710487645185785,0.01789625874747289,0.08353526536412537,-0.056436739226710046,-0.08518064881782048,0.126778231295757,0.20991609484013168,-0.06238063272507861,-0.22905518640568479,-0.029526239624817388,-0.00032077158510546725,0.11024749559769406,-0.09998156504859215,-0.17340216316888107,-0.14147281934153288,0.01091915316878003,0.11571479369341395,0.03327735861953115,-0.10766954400162213,-0.025298771822627165,0.11806386843705549,0.09920662602018564,0.05019760280854534,-0.009621692670189077,-0.08414381658337078,0.12105167034249752,0.041030372482654634,-0.023988198397425,-0.12674625612176021,-0.13535904003581964,-0.027189339376159475,0.00866605417947867,-0.048331840902706605,-0.08170446974039078,0.030298623653245156,-0.04362213797494769,-0.024187113936431706,0.13634785927692428,0.07394662672181147,0.026637215068866498,0.028692617795290424,-0.018445015204034278,0.03317852418782422,0.11049169788341968,0.08425605391934514,0.01897922140379087,0.18905757733713835,0.1814882745940238,-0.11890584481968544,-0.03879453515540808,0.19799984893389044,0.22383578952327368,0.056969087971164845,0.08959741494730114,-0.020051441187097223,0.04786356580383144,0.1669133856714703,0.16932051987843588,0.13510070876004174,0.14729553414564578,0.14350353971784935,0.09787492075869814,-0.041122325082425956,0.07004016646833625,0.09427720679398625,0.0529039300246397,-0.010297180778958135,0.07565668660928494,0.055306301291519776,0.046976846097176894,-0.07659309067656285,-0.14253292285371572,-0.19419609100306406,-0.1359367303259205,-0.08014132121005095,0.06245974410958588,-0.04720678239553235,-0.15948451431235297,-0.2258617789255455,0.05729288569858763,-0.017444072841940213,-0.07618373812411446,0.055963792519294654,0.06640256801780779,-0.027929316689039113,0.10911455517816357,0.059390319202141835,-0.10567977669020183,-0.09047450830908492,0.15094362659072502,0.11437509692171588,0.006480126687607844,0.021328970859223043,0.06807820961244869,0.09197914985152893,0.006463684726171777,0.09176138804815709,-0.013946064383548219,-0.03252377747298451,0.016544233358808558,-0.04402604260072112,0.08877074573165737,0.08292517977491952,-0.009800363430543801,-0.16293427117373793,-0.045651337681035506,0.006496697084029438,0.19060086125638334,0.09913703138269483,-0.0014031988815921066,-0.059465380032616665,0.033280201313877475,0.03770370999468723,-0.05039634025103878,-0.010810859072272432,0.09498009436633437,0.14897937731305136,0.027819810166268142,-0.2514253323143348,-0.0762411491334671,0.18746776912873608,0.008266581416939152,-0.08263351248512044,-0.10853019768525846,0.02877545094026718,0.0023922159125744653,-0.0364287170562311,-0.003174273235995497,0.06838488267513457,-0.056141313643823375,-0.024826832045498303,0.028324053910956715,-0.01298099591078935,-0.05272366895375307,0.026293477381824047,0.09905188298304565,0.053207881407276725,-0.007287728730711387,-0.12011863640923984,0.0729571407604264,0.11261951282550581,0.019537141839275136,-0.07337182707511819,0.05798583639881107,0.19738641147697344,0.052592978079058224,0.03541564700657036,0.009797739931906108,0.09849181968118063,0.014222900572040816,-0.010993024405877804,0.12253569835517555,0.2447196241306141,-0.04014758003244642,-0.039235461023054086,0.037282246879336886,-0.00020912348030360588,-0.0886033258760348,-0.06312252343383151,0.03662293815381126,0.0883737275043968,-0.08336387258628383,0.047241981573076915,0.05108875209514517,0.010715665344288573,0.07574370730561204,0.1526296525820624,0.0992854542769026,0.017272012202173937,0.04126354191771243,0.04056428020771127,0.012652023109683068,0.06544954617586918,0.014509890545078086,-0.14463666280047036,-0.08236300671435892,0.031770194043149236,0.024010547226550986,0.2670622061789036,-0.005398695547139505,0.003102776619074575,0.13337569333203136,0.056848717561084776,0.03647136203800328,0.09262815181217156,0.06179372251548338,0.036134072358056435,0.01570830312447506,0.14670098405228926,0.23384759004767983,0.1619068826210685,0.21363272247677667,-0.01748130414636689,0.015081749316013884,0.2866329488936811,0.13076023187031968,0.07187715893741696,0.14991869485662318,-0.09358284958796576,-0.13768347352854907,-0.07434020174981561,0.014142331307742279,0.057984224397037175,0.04362341205000411,-0.11935321412784979,-0.14212509097149595,-0.017744270498066907,-0.019355175151780712,-0.14005142650259658,-0.07278758831322192,-0.13800485097002238,0.016626246803166576,-0.00037901749321681564,-0.08347128761666826,-0.17069990020655096,-0.07810125761665404,-0.08738901818282901,-0.0366053180154413,-0.19216425638189538,-0.0026572367959262918,0.07745895939143374,-0.05008080346188508,0.0060488408645644086,0.05543039346206933,0.09405649498170242,0.03245741825548466,0.11829757672823034,0.038771455673919986,0.021167062862357124,0.10528537967829033,0.13584668655544518,0.06984855288637336,0.010967885398044018,0.12313054984263144,0.07487688417609314,0.2009884180243127,-0.016396718071831854,-0.0810392016315367,0.13139052913049235,0.014213235411263302,0.059304348818585276,0.127192903910717,0.0579079534235876,0.05396263616418,0.10040482282880693,-0.02810247216570424,-0.09851302686599082,0.1502726867929101,0.243684381065052,0.14519865319794042,-0.02842143160451669,-0.03251593894311227,-0.05147510279791895,0.23331755655789746,0.09551147042983212,-0.11808094743601977,-0.14253893246939406,-0.38541678292453285,0.13220019241240807,0.22161705402787774,-0.0343772552859853,-0.12331423584646545,-0.0783943770780228,-0.12609682490285484,-0.040929725119774225,0.1927034595588222,0.11720911477124318,-0.2767299973049201,-0.29441172966901213,0.055782339571742334,-0.034459985682973635,-0.2338800858114846,-0.25763750309376043,-0.17655282748583703,-0.029041376434033733,-0.0726959827733226,-0.11653332526837475,0.02316516189399408,0.23628201412037014,0.35204076568651943,0.3891322232510894,0.28848356346273796,0.17096284372536463,0.2181721925373189,0.381111377348192,0.19589726889776066,0.12420933065582065,0.15758089091442523,0.2094385952551849,0.07988583947848528,0.12837480717166327,-0.04834864134045783,0.044970406212168745,0.13441398687120526,0.10520308082285336,-0.1590069781947881,-0.19853021121723577,0.10932262670458294,-0.06954280227229465,-0.19083048702748492,-0.08884784782216884,0.06617304727798327,0.002371404592930776,-0.09145086992741562,-0.10175130553431809,-0.13145890905843116,-0.05000645045088604

Acceleration y :
-0.04209226152654737,-0.03513417231722269,-0.0010007899525779065,0.030617918735486454,0.05202322450024076,0.019909893274959175,-0.040758282109582794,-0.043114430481404994,-0.03934790842158254,0.04233528106876183,0.05815316035631112,0.0496697247432312,0.008876124154272838,-0.029858951311057896,-0.0024560727884396327,0.02256273217156995,0.015524234669795259,-0.021149221244989892,0.016997172749589663,0.002892225726612378,0.016766393917729147,-0.008262190082078449,0.003585450421471614,0.015903020837332586,0.03802850095266476,0.0005196212655057024,-0.01895966960323858,-0.019601802290033082,0.0110984632499516,0.029264380668103693,-0.10344958821902982,-0.2726041495465673,0.2242668926832266,0.09335424673017113,-0.1356613748501055,-0.22970071776760742,-0.16235696447612716,-0.0050088879453775,0.0855836857939139,0.04484790321050677,-0.1674642610198818,-0.11554130029003135,0.005935796386058791,-0.014020031518768518,-0.045751825213711704,-0.10957049138527362,0.07113082494898698,0.1840406990231946,0.18905657269014045,-0.0133534299693536,-0.19988100477168336,-0.19260916887149213,0.07753682866692542,0.006042312942366698,-0.021255143004609272,-0.13397825320190748,-0.12537407271941192,0.09138122049099766,-0.04696958523932844,-0.016885175158921628,-0.04552924110474996,-0.03249815212467219,0.05709281938211061,0.037378740940196435,0.04093855688020121,-0.004945776135133928,0.017523659150482852,0.04734429573665838,-0.03373629050132586,-0.0920883823796641,-0.06742252218269278,-0.022626856049499475,-0.1981011721502058,-0.17163590241502968,-0.16316102913431824,-0.08305699859419838,0.03659969884211896,-0.05710341840793844,-0.15604949836237356,-0.024961915967520325,-0.02326169933733763,0.10462364610023796,0.12713767572529613,-0.019103512220451375,-0.07472936089760623,-0.09183390529509633,-0.06572694291172083,-0.10623176628346555,-0.1057651625518687,-0.09035773179531097,0.010122178121790056,-0.014918647159193641,-0.10083780741859227,-0.1668762319988571,-0.021782000439905094,-0.00018295276493399796,-0.030783722022757865,0.0602582611430902,0.096506609813869,-0.0019540219997761597,-0.02282287409523269,0.02970100025339052,-0.019476413211540783,0.003119960934726987,0.004893759965995559,0.04124020214132033,-0.00941959708094073,0.05260398353026248,-0.06586531933594961,-0.0380862361890031,-0.08355902069904841,-0.05112718440939206,-0.11173223599642515,-0.061136240420863026,-0.09348902469151653,0.07267544230879285,0.1194696344485972,0.006955213978115353,-0.045209050973365084,0.01495680890373769,0.11731005439506843,0.059806695150420995,0.0351270895558875,-0.06314573534606024,-0.0645807137523545,-0.0004250817710675619,0.025548271337978073,0.06094822986836079,0.04658500636853277,0.03557675813570386,0.018195624144893372,0.008661446503020124,-0.08176110443160868,-0.014362692635221172,0.005162303250178229,-0.05651170415906235,-0.03592369699340779,-0.15276737141916527,-0.16361138498401268,-0.0749002422187943,-0.042612422076286745,-0.038653848043084145,-0.13357769131069072,0.02449985141372308,-0.025099011466826776,-0.07990461724419147,-0.08330943898530677,-0.07367297457931563,-0.00673332912629703,-0.040118591399979774,-0.08490138435186818,-0.13873641664758324,-0.088630780138541,0.005425367212467245,0.07166570357724558,-0.02054749249217566,-0.05437898927957285,-0.08836609218721278,-0.04111082187430001,-0.0156901920790493,0.006883991355830221,-0.02081593188672559,0.008276216324142296,0.04115621365229599,-0.049553674315242095,-0.08507223827359266,-0.09038057381478137,-0.14146972320214846,0.030468808571400583,-0.010691256988816894,0.022129105977679135,-0.009158414548484142,-0.04130830350804608,0.03375181686402066,-0.03166178578221006,-0.08365020611383951,0.01381450243424042,-0.10789622889696619,-0.1016469592438545,-0.06876308660407085,-0.04213059794267174,-0.05146366808845196,-0.042129177737142885,-0.04775561191732995,-0.007692250986059661,-0.06590495722659398,-0.09659947572909296,-0.04538157169579062,-0.008317885200024466,-0.008841878249731962,-0.026899930258817036,-0.02559153737425804,0.01620083017355064,-0.011393193571449954,0.018561440091358964,0.07161194582970347,0.0547868348615244,-0.07393237900075036,-0.099266356850788,0.0068709914520062735,0.016257221694529287,-0.06810696078289766,-0.04063869715079199,0.09794565704050473,0.0372356540915207,0.1551084363862872,0.04571491813627072,-0.053730352645111265,-0.06760196126967202,-0.036686459243542045,-0.0029601007623525216,0.07305980655045714,0.027890363784984218,-0.06234323702387046,0.010788257939752657,0.008721811517039895,-0.04117192267808131,-0.06191806128120515,-0.07805235870731994,-0.04680185485645197,0.005318822685873601,-0.0674974094832316,-0.07397851056426298,-0.06683490415362175,-0.03091994758909568,0.02874570882255211,-0.021680375829490367,-0.06935638088867999,-0.018747701644769403,0.010323379232716978,-0.0545025608603144,-0.0006149367213147342,0.018468313881231005,-0.020274322123581077,-0.09137975005311891,-0.10798154169339685,-0.047795300040324215,-0.038052484616450964,0.013188159829977666,0.001835990533488075,0.04309814150030725,0.02779127362495055,-0.0349325830472284,-0.05936159086457919,-0.03888035940849222,-0.021454764079803134,-0.006260213455522899,0.0211700608203304,0.0018022528033732668,-0.07729112854385749,-0.07740574050000869,-0.005970504085725406,-0.03696185125197517,-0.04690457544540986,-0.016293648139713332,-0.061470892902440386,-0.07732588932998478,-0.07325798687052447,-0.030001298374217,-0.055514391084248195,-0.07568289876277558,-0.07566836791392416,-0.0326649669088074,-0.11248643363090231,0.005308232793200295,-0.07576773206859361,-0.12159322074013762,-0.08459909520335494,-0.041694192986516276,0.1325184280487243,0.1087642530363053,-0.06379856866502669,-0.061360075771994885,-0.03232296452112496,0.023766491071297784,-0.009473140770173631,-0.02357941895042313,-0.010062627670989603,0.03358085106115322,0.017677885022747794,-0.07751071697813458,-0.1019905485171359,-0.02813910753179807,-0.02931900834861444,-0.06229118717622477,-0.058689075597608456,-0.028978974155732428,0.02119292338939849,-0.029901904536795334,-0.10982057542251422,-0.14947829414536246,-0.043362742686667476,-0.04049016009215265,0.0023264165289059746,-0.14167121885730885,0.04995823196156416,0.047652128709969106,-0.0010358015436908318,-0.027951172327820677,-0.07005615405533462,0.004297044744194136,0.0006860717223986284,0.03814132737710606,0.007760681146348361,-0.0844502613171935,-0.03022188688891474,-0.014180386879364959,-0.02907918997706147,0.02043393313208362,0.03441373082187492,0.059248339748452415,-0.11428708984469994,-0.1669963512471877,-0.08929027609373442,0.01728812080346979,-0.06566095130369067,-0.08952404831699096,-0.025964530838537028,0.01388102148194448,0.0001392541435684052,0.00048087417851511415,0.03767357515132753,0.008546307107195025,-0.09448831966086291,-0.012319570576702243,-0.017172380902734583,-0.0025635828607133587,-0.021060419583530166,0.033968665351939854,0.009094275829178513,0.0332982233110466,0.09387389582325704,0.010945629042107611,0.0542256299153436,0.082203961961437,-0.01862056242554099,0.005037247531826142,0.059853274238505394,0.039796446773526256,0.005657214052585186,-0.0005750686823115756,-0.026051519568823275,-0.020027551138144917,-0.010319833285472122,0.017107051448407583,0.024174256738147232,-0.03637124211479677,0.011071958835516125,0.012394462443818338,0.03831323161160107,0.05564594960862305,0.03505973025796702,0.011230883715784875,0.03094268686057767,0.1413918995924294,0.0373459506321582,0.026358786286553366,-0.006128449435171205,-0.052710750106675544,-0.024873068640287963,-0.02709001632068539,-0.015699208785855442,-0.0038632538681107687,0.0004516313161298967,0.010953722158662275,-0.08326104239947162,-0.05196470381261315,-0.058954932592716065,-0.06956788191462401,-0.05408905272255651,-0.032334234833810475,-0.17685754605345427,0.016593080894148442,0.0168849057308631,0.018129307168233206,-0.028839433254301546,0.01879046193261747,-0.05737010195353068,-0.000248095489062598,0.017022914545622186,0.07382467627599835,-0.015708185535110532,-0.05532311999558005,0.025032656815904192,-0.041577804631809705,-0.0770770930675324,-0.11011206004922278,-0.09025232605892233,-0.033390984194993506,-0.0815038508680649,-0.2154158430338837,-0.04403919890981633,0.0010258995630705611,0.02395689679357456,-0.059692215625010425,-0.06972726916084065,0.004412117924648919,0.03600889105882961,0.014362007648631697,0.07674476497378199,0.01248092601771932,0.04712436480908654,0.0013670480008047888,0.029979177873954176,-0.07508782807961106,-0.004108524732915975,0.05009431596400682,0.016184899668768047,0.045972482227068394,0.01383069095063838,0.041210176895814944,-0.007267110634368145,-0.10415879593431018,-0.09777132338690571,-0.03592758543394738,-0.05659309883220121,-0.061848603641032236,-0.015930646346486173,-0.07016486142708454,-0.07890505741336383,-0.001515221588435088,-0.023767911276826634,-0.05126454705346841,-0.0506756138501456,-0.12044663538774475,-0.1187674501291476,-0.08547304675998166,-0.03826999982465058,-0.04287810097488109,-0.007976743041333974,-0.05891367813372053,-0.09920672648488543,-0.044929001056123526,-0.05400203202622942,-0.08145622146720997,-0.02094439883829327,-0.0006315995909259072,0.08164817297589033,0.06331941141253337,-0.10756610189345665,-0.24465927224550396,-0.2166149714242667,0.03501994852013886,0.09723326185429468,-0.046846438350272364,-0.16041310039935633,-0.07892753410665318,0.05106695125529077,0.10432441655849106,0.051149683935567736,-0.05075150123110506,-0.07037144881589338,-0.10269264150504022,-0.050892019380070264,-0.11617045590588822,-0.1865948587517254,-0.19025102490540594,-0.12531352903805673,0.010343743884022115,0.15902599342251195,0.1486084525082726,-0.12511733974567613,-0.03413794608779717,0.11309145031934603,0.06432199888408649,0.023153770567011088,-0.01161834295518929,-0.0380126594961388,-0.01949031158944126,-0.04138161077285185,-0.018662433372467056,-0.053122431613528164,-0.10673081097993999,-0.039296612059185276,0.01926079084961675,-0.000004363243609722645,-0.08840502682495861,-0.0674646579911001,0.037563189562433395,0.01049249100521556,-0.013196990448760333,-0.03875424881079234,-0.04508311847217846,-0.05883640707985032,-0.01843444243602571,-0.0011561159418466559,0.038395210806629616,-0.0006693163795978762,-0.05267766525440384,-0.08934549514600075,0.05955450592106208,0.04202088135734666,-0.06487162755690515,-0.10202983021475374,-0.014839170448505318,-0.06003864530934952,0.03785736161986133,0.006826829795760568,0.022295776914630548,-0.06209405716892797

Acceleration z :
-0.011841639450204092,-0.024406387276877647,0.002088939955255773,-0.04115482084623072,-0.0441736937433714,-0.007527074461517623,-0.010521299257880309,-0.02725701148462249,-0.03456933922540629,-0.038473486507497726,-0.03848161501502618,-0.057507227135589346,-0.007517405875807162,-0.05597312660322059,-0.0006172706704128359,-0.05795642307465896,-0.04104382105269469,-0.010043629567930474,-0.04847449164325371,0.026205228276213164,-0.09426933401478454,-0.03619418906443752,0.043417660344834436,0.06057160597515758,-0.11860186603758484,-0.04409716704159509,-0.0584647196566686,-0.03884194079397712,0.01906366540889721,-0.03886708436838816,0.026967693698825315,-0.05804690066997427,-0.026938586335349825,-0.00781446686417621,-0.053782480124570424,-0.041381624472583645,-0.010275772664748365,0.003013136134453816,-0.017816191806673303,-0.03761343104548286,-0.016253598115470957,-0.02676064280242426,-0.023495361962739842,-0.016859025795868364,-0.03349166352391476,-0.009794455421209568,-0.034512012697733005,-0.03998035653964616,-0.026105973719398025,-0.03989545930174645,-0.0257324573820224,-0.04993391493763774,-0.030550913347303865,-0.06460701267081312,-0.015860351881029782,-0.03870916756005026,-0.0036754168455445323,-0.02360713350783335,-0.05658024848378263,-0.023685226545610928,-0.02231074158832198,-0.020144569680513813,-0.02266130859166151,-0.04673611897674854,-0.03148044243251206,-0.01181355728332419,-0.01689247140774387,-0.02945967719462933,-0.030519228150963317,-0.02829046216860879,-0.050875282874400726,0.0026678566567628877,-0.09002158604296855,-0.03704230749348644,-0.01331461977083818,-0.02737774493759498,-0.03177492958377115,-0.07457081846818328,-0.012745551178610185,-0.0441565188462846,-0.041768381600733845,-0.0598891629692167,0.0006930521638620121,-0.06111154437102377,-0.035335633723053615,-0.03755753842307022,-0.03994711185717024,-0.01595508210142143,-0.07295263354866766,-0.004371469393373991,-0.04596816681155469,-0.06614803156773559,-0.04979040568056516,-0.05033405213716905,-0.036823892669565976,-0.04102640412701294,-0.024120348293555433,-0.01991623853406636,-0.03144885313429404,-0.029780707576230633,-0.029300888170034158,-0.033768838780769146,-0.03586966981780715,-0.03662850937807234,-0.03903032580581493,-0.029908749836112837,-0.015976619221438886,-0.056544241022062486,0.015572856159560614,-0.0053690675938560155,-0.044857803550013335,-0.05445291303230915,-0.04063986619457136,-0.04962599519935902,-0.05933156105249654,-0.030783377246174495,-0.04984816831636708,-0.019637261762481647,-0.00764886450630438,-0.05406383608290925,-0.0011932158858242474,-0.042834928553435014,-0.04480734287125524,-0.02682870078666601,0.006132964067618013,-0.046849438591534266,-0.036547811107966115,-0.021501098856003955,-0.0312670736764674,-0.012575147064746123,-0.02994202191805234,-0.009617083852086216,-0.023078928932244887,-0.027721007700602058,-0.01817208229745738,-0.01610380410643993,-0.021058506187656895,-0.04034960997714661,-0.021274900301138402,-0.028017252984107472,-0.03938920854635071,-0.02967256189348409,-0.014064571630104909,-0.02033461007660953,-0.04939066120667848,-0.04742965419886168,0.012466282146080629,-0.02805951665667817,-0.054069201811193485,-0.03417942202578997,-0.0317755186722381,-0.01855191306954366,-0.011658951243502087,0.0009149355172721697,-0.05388808679035864,-0.05347502161059528,-0.04658415698516182,0.008489848229201742,-0.03175794876621803,-0.031149746890133244,-0.03669832092798315,-0.037159410517534706,-0.009782992170634679,-0.08447514916327782,-0.015351049510377924,-0.0006905882813702191,-0.028485733578959477,-0.03203031313392566,-0.0157059353541641,-0.05373896977640688,0.00670285464375338,-0.010787556970142758,-0.0505742084354395,-0.02729193438424263,-0.08998014892088249,-0.009296997039511916,-0.04523315793473739,-0.03995874749603681,-0.01540423643576214,-0.07895382845853455,-0.030171691071637904,-0.02836086280698655,-0.06322580114521552,-0.02267018373457249,-0.00025262027144090096,0.0016863983100898622,-0.0473708321171347,-0.02415178461143514,-0.030744335293862966,-0.022234612178767564,-0.0638491526413709,-0.037227235606336034,-0.04159732218303252,0.008963537005422403,-0.04404110773911234,-0.017723363565711768,-0.0360160172026488,-0.07730882859732956,-0.055134296592324966,-0.04586022662478499,-0.02644000514646759,-0.049354626345494756,-0.05099897318615112,-0.0070125387933221645,-0.039804725978104395,-0.008481474838967551,-0.049443464539572594,-0.035698156025668136,-0.04433253300031647,-0.06675800755908712,-0.029464145590481345,-0.02079696232477436,-0.0435706589494599,-0.03301975571282673,0.01818160703598405,-0.04436369989013765,-0.04147223449863959,-0.038290951281134036,-0.025807662059681023,-0.04911891332690138,-0.028949401001376097,-0.047813242122391235,-0.052454327660193666,-0.060813844632660034,-0.02220086288950406,-0.02637063655455131,-0.045347130570071746,-0.0442637146809604,-0.05052723205513321,-0.0313669972368516,-0.033097803084831685,-0.0296455939714564,-0.034144736588187515,-0.05854493158629629,-0.03190322985526873,-0.0588262647117488,-0.05924917086551431,-0.029920058964705093,-0.05580849235972855,-0.06476077389384154,-0.03545928978547454,-0.03056157402192475,-0.007240471505903406,-0.0362564954446163,-0.06305482849248219,-0.03733214130251435,-0.008469925965068978,-0.009867473850003443,-0.07095039948131888,-0.05314811861063353,-0.053151164517668076,-0.001993110759504634,-0.03865581623788457,-0.028788696297619026,-0.05485576734531205,-0.024646415710984727,-0.008925863884645514,-0.04305642125043087,-0.04965505689706187,-0.05877596842977218,-0.06460874340359588,-0.0354317327749799,-0.008498983667016728,-0.0005606542098275895,-0.03574259338901611,-0.033041673000401346,-0.04350301880703773,-0.053319255660148335,-0.04958912465453613,-0.030976682745013383,-0.03508648126757471,-0.04946036544202361,-0.018163631846231872,-0.007705029981708503,-0.033506826843717134,-0.03245887042705435,-0.04711013535433448,-0.04137932748422026,-0.05200084370507393,-0.03732493524359306,-0.03131785629892256,-0.05088379040784202,-0.009083681369927944,-0.028223975086945574,-0.027294843293959273,-0.03456075177686289,-0.047109057642100376,-0.032590604764653835,-0.06348340633520856,-0.04536248796940781,0.011276894265000009,-0.01726472851143917,-0.027425235057843382,-0.05793479576474055,-0.018692821660864865,-0.010627017804811475,-0.05314639701100532,-0.04970676425141282,-0.03383129357470898,-0.06343538420870899,-0.033465885195264125,-0.025384637174906674,-0.03892528082903009,-0.03129166241174098,-0.0011678921456696116,-0.03227325732761528,-0.053067924947314896,-0.024483653764170592,-0.0687743660499109,-0.011305735625349915,-0.036794853804749436,-0.05904853829345665,-0.012320059200469404,-0.016891174499801126,-0.014788213154469848,-0.023766552720090837,-0.04543563997058663,-0.041510972773563116,-0.04359302604489494,-0.019202649187901988,-0.023982047217851504,-0.007675586403982015,-0.06468600989088881,-0.021998746179835868,0.0021165474835113853,-0.04095826622766908,-0.011461097433709074,-0.017125394247629447,-0.015315247544634621,-0.041485354275116695,-0.011707674339611548,-0.02505502847791649,-0.03434877354359487,-0.053792439829581415,-0.043338987351744435,-0.03568725560574094,-0.029384280720725655,-0.02097895869502099,-0.01723857001523138,-0.05106461316773202,-0.0461178729139734,-0.04940942983923014,-0.019633215775026473,-0.04103565144597087,-0.027711929345002863,-0.031161905402096454,-0.028791771887405775,-0.028469483413768464,-0.00033618578124624036,-0.038660081421048376,-0.03765379045533482,-0.0574216631774092,-0.022115792121668344,-0.03470379980963189,-0.013371558139444096,-0.036731990302144545,-0.010263343583082314,-0.009987778044713194,-0.03497980373941827,-0.04769412752105854,-0.07134944983546156,-0.058504681774298656,-0.007773354539897991,-0.01511276208385243,-0.04147928529393393,-0.03773126472189324,-0.06842173495364841,-0.04521522955240216,-0.03351056002062978,-0.041707331029302436,-0.03433990525054978,-0.030104827247350474,-0.024272881107300054,-0.03160123981756623,-0.023097181541565804,-0.015496592035976937,-0.017606394114048452,-0.04739586152711417,-0.049209039295767434,0.0064243904704664595,-0.05109247385561466,-0.06473194052500185,-0.06817842315048911,-0.033357214356132314,-0.03412990662852535,0.004177760037858388,-0.03261569354013773,0.001220108530679863,-0.021551112010190263,-0.023514429706102236,-0.027232986721640918,-0.021798202656034844,-0.03318058143088128,-0.04817603841964155,0.015869762455124874,-0.008667852269276044,-0.00823694375967898,-0.02831022631500382,-0.03298031190171605,-0.00983834936186322,-0.01738322776648565,-0.011145758149022003,-0.05546846045013517,-0.03557993875676766,-0.06395865003098733,-0.04164709330862388,0.007589530967923928,-0.04491828786586411,-0.04552426810211036,-0.04064186178883537,-0.038565585237741465,-0.05922226915885694,-0.04930524337897077,-0.042677185275033114,-0.041184750193613576,-0.07322077839898411,-0.039695680679637003,-0.0569364278105786,-0.022846485582971945,-0.021316853446455206,-0.005613716262509115,-0.03466059770543361,-0.03809577805219451,-0.03842041831312235,-0.033155182128143494,-0.03254340462206164,-0.01890218096207245,-0.04238411604601424,-0.04119698405410163,-0.027161289175320416,-0.036457036685128695,-0.04092939632621128,-0.051709400177560746,-0.02550215575748589,-0.04570541508898605,-0.025366795557539443,-0.030030268740374594,-0.042372923365142194,-0.04122816007707734,-0.029223158175149,-0.036908892655454106,-0.04729653847164009,-0.01632784152861568,-0.0675559301708592,-0.056213858290226196,-0.025054729367105753,-0.015123563180724157,-0.020931886416592167,-0.07907481535654515,-0.03796758737855125,-0.021680174900090787,-0.05771063618662301,-0.024786739780416244,-0.032115899924992114,-0.057986215424723916,-0.04903229905595071,-0.04135100100545678,-0.08285811502123251,-0.028658546562329863,-0.0032441701238189124,-0.014271189843310276,-0.025097808173717928,-0.01552736391686485,-0.016596419062127825,-0.04386981542597059,-0.043892538714432154,-0.04478345510559156,-0.05089413827192038,-0.06002005933988839,-0.047726162060559726,-0.04637723166963551,-0.012191166415571933,-0.027979085531341843,-0.03282418519166531,-0.005136206973585649,-0.03568023220991017,-0.009870068807533243,-0.0017666688916942801,-0.03590260625631781,-0.02321028881050879,-0.021441525572317186,-0.01966564304017229,-0.042577999216876924,0.004983363061764976,-0.007443845165963284,-0.025266294325131455,-0.016332655842695384,-0.05975093267546035,-0.05510243558275979,-0.023500385197729335,-0.006325055998549214,-0.04094163475327659,-0.05484420020510442,-0.019818285451771226,-0.04001710835346021,-0.005753552849817788,-0.02134604529161006,-0.031108873740339184,-0.05253975918763317,-0.010166616626782343

Rotation alpha :
5.937918126757452,5.937854419118077,5.9377837408657355,5.937788280922248,5.937753286279147,5.937746216575576,5.937784821324685,5.93772046633947,5.937714289140785,5.937693808101958,5.9377108415163695,5.937796957733284,5.937733349471205,5.937762611374892,5.937717960449723,5.937729811259962,5.937766502926728,5.937752856842571,5.937800875678591,5.937785640729035,5.93785416343706,5.937764707318165,5.937769452081899,5.937884049281703,5.937828301566925,5.937809514714163,5.937828732166249,5.937803697553439,5.937841603651074,5.937830156759408,5.937088019290558,5.935992393576271,5.936413270287834,5.937476084674681,5.938576475617851,5.93948086626726,5.939989680092887,5.940410474032736,5.941177552662193,5.9420018448529115,5.942549172260438,5.943266292768403,5.9442655131861155,5.947035012123607,5.948239176325871,5.949122009635492,5.949558057009312,5.949793564065812,5.950665881154205,5.95180637494902,5.952657502687455,5.95315447289886,5.953498667366083,5.954142122053463,5.9549779473149105,5.955501926599036,5.955829196363841,5.955918998885296,5.956352088096872,5.956760704030898,5.9568045812785515,5.956604603960536,5.956374319482102,5.956212491146891,5.955645606774474,5.954874425200828,5.954344919532834,5.954215717787958,5.954659774657459,5.955241432420443,5.955577084951044,5.9558754838047525,5.956864089481948,5.957421170838303,5.957774382548384,5.9581385517764485,5.958539404702261,5.95919891183673,5.959871984045727,5.960573159768922,5.960793367891438,5.960774603454704,5.960698465252791,5.960846983738029,5.961062971059657,5.961169924261299,5.961778011964653,5.962175918941598,5.962342315810788,5.962246503656523,5.962104310699274,5.961997503343314,5.961613031788109,5.960726082398626,5.9599369939662346,5.959149418549374,5.958189603276147,5.957409266286306,5.956659853352419,5.956020685434128,5.95531476888241,5.954846554880391,5.955265110803835,5.955729893876061,5.955861609306923,5.955752731083242,5.955643331455594,5.95588633121286,5.956107643100553,5.956291278947108,5.956450036633047,5.9566968267176,5.956979069993289,5.9575152842710954,5.957920086402916,5.958526076728282,5.958882659447803,5.9590636073740955,5.959271274621963,5.959731720099806,5.960462407008478,5.9610124589648095,5.961346400302862,5.961383973419374,5.961290248030926,5.961430040127793,5.961705564716629,5.962062083086928,5.962299785630938,5.9626555147105575,5.9635306593179305,5.964308267896171,5.964756005576311,5.9652421847078685,5.965878645001297,5.966616464857921,5.967294375533847,5.967748849724201,5.968148883227462,5.9685834081960545,5.969122794663086,5.969820749307742,5.970133178074083,5.970273232842512,5.970600158233294,5.970782080659942,5.9707997659235215,5.970769986054597,5.970840640019902,5.971070906445633,5.971294706943963,5.9714583789949955,5.971718200253625,5.971887284235206,5.97222160027923,5.972542596759806,5.972902444033155,5.973299509774511,5.973886780671147,5.973920195363083,5.974057073944012,5.974298105784631,5.97447375152493,5.974660277141262,5.9749408205051235,5.975360655709007,5.97550351589374,5.975306745605807,5.975373632989981,5.975581846540727,5.97571375613723,5.975597279519142,5.9755335992828815,5.976079058274234,5.976164232963397,5.976416635774572,5.976960622667916,5.977433831705511,5.977622064990758,5.977711222991158,5.978045811832279,5.978472486017172,5.978748866008313,5.978919755757253,5.979118747524883,5.979507198889562,5.979916265137657,5.981040182887421,5.981404854608528,5.981693607141581,5.982135772158353,5.982588974173707,5.98280785991519,5.9830406465553985,5.983235827998163,5.9839191110946075,5.984577262417167,5.984639583233853,5.984755656691092,5.985186495943555,5.985888029497146,5.9864328952634995,5.986750056633385,5.986978263558129,5.98730127709352,5.9878522417366025,5.988436172525781,5.988732541834752,5.9886731500509836,5.9885188200408415,5.9882888314570994,5.988021744872591,5.987506257182193,5.987073724606403,5.986737799838052,5.986591212858547,5.986474488203983,5.986183175696034,5.9858634298141675,5.9860191769329765,5.986477400791707,5.986727775353793,5.986906046147068,5.9869350027604655,5.986934667511245,5.986820348711215,5.986577719473979,5.986295958623287,5.986111806424127,5.985960418121163,5.985869329175913,5.985823744934749,5.985907156913634,5.986321873278929,5.98671729156179,5.986918319161787,5.987074602566077,5.987246043950443,5.987172648059294,5.987074336504213,5.9874744571406575,5.988076742969767,5.988233551403952,5.988518418245315,5.989065225931944,5.990741484894104,5.991303802111423,5.991819585950518,5.992425369875516,5.993190266781916,5.993924736212307,5.99443734373655,5.994893060905076,5.995400275784526,5.996187589604896,5.996979701926689,5.997598024344508,5.998047572702161,5.998598424848745,5.999550029001511,6.0002151640130235,6.0011853704307,6.002313106580224,6.003304838293606,6.0046575609891555,6.0064359550271345,6.007898053520618,6.008620750488281,6.009238536625231,6.010249850833205,6.011395882831475,6.012275526907104,6.012902617064856,6.013347198103986,6.013642812023692,6.013568953565441,6.0130357304020325,6.012475592286658,6.012153636094425,6.011903920148039,6.011919354261391,6.011564114705072,6.011254292844214,6.011300984293785,6.01129042846216,6.010768404454597,6.0100262625488705,6.0095736493648735,6.010326162360932,6.010691823252108,6.010679149450695,6.010370806656824,6.010219973679838,6.010120923901265,6.01017205330541,6.010414241929919,6.010550916918282,6.009966217089489,6.008979437077345,6.0078756475855695,6.007355558700327,6.007464729390918,6.0078809685115235,6.007664221269409,6.007375416402179,6.007163117679287,6.006860160399765,6.006021018715588,6.004977654388832,6.004651858088239,6.00479176971289,6.004564683243551,6.003585181775515,6.002621948449563,6.002062560124829,6.001516356041928,6.000687644503091,5.9995228887290235,5.998999559780527,5.99851807829776,5.9979311990972,5.997736308567563,5.997470086037664,5.996930486130215,5.996378479411735,5.995760742917579,5.99481852626997,5.993936391727635,5.993436461088361,5.9931739600991545,5.992974311460366,5.9917952783234405,5.990760709278505,5.9902720421897335,5.989997779258458,5.989581365086606,5.989021647055914,5.988681855446925,5.9886386152910855,5.988501742708105,5.9883317649320436,5.988428141659007,5.988597931823481,5.9885533189960505,5.988417644316039,5.988554121440024,5.989046970938898,5.988919709771389,5.988801271987109,5.988888974965308,5.989048154009495,5.989202865149007,5.989360183421036,5.989518530761365,5.989737646867045,5.989662034568507,5.989789694963621,5.9900416288021585,5.990251037202833,5.990472337340871,5.990977713879022,5.991580148278631,5.991600282381374,5.991626799359325,5.99202465305143,5.992681387301215,5.993412146196859,5.993862559500351,5.993604899943876,5.993108007047024,5.992658814123734,5.992432707723692,5.992280441701555,5.992180583918463,5.992311462164431,5.992932854798619,5.993338410705406,5.993788762591262,5.994296498477646,5.994890461903381,5.995345570203666,5.995646667951722,5.996018422421045,5.996747341822251,5.997555345788468,5.998448777277412,5.99881581140446,5.9992679651565535,6.000274119061625,6.002481547948246,6.003325600893228,6.0038644059744675,6.0044370054222815,6.005085758606439,6.005816880269767,6.00667114704621,6.007768596954739,6.008832687399614,6.009708944920547,6.010694702684376,6.011800136372753,6.0128869031173044,6.013927077080971,6.014661758087109,6.014989269459833,6.01484354185628,6.01472140179925,6.014630313506398,6.014502199574111,6.01460614092239,6.014685206612617,6.014403469328509,6.01404446074576,6.01377678719855,6.014088187408219,6.014440229387929,6.015005662373447,6.015970550105555,6.017579738289023,6.01797344825956,6.018342145992341,6.0188584455472105,6.019617246886352,6.020383218023381,6.020955323194017,6.021245222628122,6.021482274780373,6.021907083011806,6.022617425883279,6.023540233268045,6.02428085070037,6.024643776683741,6.026536592390768,6.027572130760015,6.028740491442338,6.029798740507629,6.03039320178163,6.031069162594379,6.0318433394565885,6.032038547223479,6.031376588103135,6.030683151507655,6.030668997496312,6.031537999168123,6.032328636503347,6.0326417206066605,6.033047263029785,6.034633851582685,6.036039080119614,6.037375783068953,6.038079322586611,6.038117204729114,6.0384711564697495,6.039153445107936,6.0395531605882855,6.03985793868612,6.039823617726864,6.039056060797663,6.038123682790225,6.037944944136986,6.037994920006372,6.035867608870976,6.034284133496788,6.033410511753563,6.032988788676211,6.032478436628902,6.031761407027083,6.031093048188155,6.030472949738862,6.030131275732734,6.029620516091957,6.028920351454124,6.028213065209043,6.027870867794859,6.028036874194731,6.028463658277082,6.028384614003306,6.028202076868395,6.02841559812011,6.028769406772044,6.029309677192385,6.030051534267831,6.030904844798114,6.031706816044622,6.032349191372949,6.032804196073151,6.033523020255508,6.034338153642782,6.0349505598839865,6.034921213551327,6.034891799391612,6.035615649279191,6.036183803045722,6.036572513271126,6.037071983205102,6.037506945147773,6.038101488430848,6.038589702920451,6.038832392751425,6.0387582912391

Rotation beta :
-0.012440730558491172,-0.012402586481814592,-0.012324654225373613,-0.012320047284630938,-0.012502440033387945,-0.01263378827157131,-0.01264041125501495,-0.012453411032343957,-0.01226768262226913,-0.012391693965207645,-0.012472451122467176,-0.012666149280632734,-0.012568728915362553,-0.012352941121099689,-0.01244254322617709,-0.012683712550086056,-0.012653756504180198,-0.012441365133874827,-0.01222886751777147,-0.012156546340802871,-0.012298181991606084,-0.012164830419396469,-0.0121316316374461,-0.012584607964318324,-0.013044539068501382,-0.013161504685960985,-0.013179457304025432,-0.013016040809908294,-0.013044056651422995,-0.013190562612400526,-0.013234855358683986,-0.013409251717389386,-0.013539025987682429,-0.013765863338907995,-0.013986654390289578,-0.014130821767925024,-0.014267467956517897,-0.014473061685367031,-0.014680402787105602,-0.014989115345014441,-0.015246138138410201,-0.01545991794103089,-0.015630705258203318,-0.016231383456771067,-0.01635434903145204,-0.016041322026370954,-0.016230663558887366,-0.016725794357167326,-0.017847176253673068,-0.017979460892291587,-0.017422867338418007,-0.017184850291725007,-0.017561265389147387,-0.018000550281352674,-0.018144369202617798,-0.01778278992588119,-0.017668328822125445,-0.01779751624548496,-0.017928342353588176,-0.017866558077719547,-0.01770513913298547,-0.017307062823063088,-0.017189253207027477,-0.017231152052233318,-0.017264885201870087,-0.01698463761873459,-0.017073776887192096,-0.017160982971706096,-0.01729598707538264,-0.017402143855698708,-0.01729779960546848,-0.01741437858291054,-0.017714441231415336,-0.017624973955130265,-0.017126913590961707,-0.017091504900280115,-0.01740217062057201,-0.017451011232128277,-0.0173630778256124,-0.017301519141921937,-0.0173265132969804,-0.017530497076649283,-0.017691395332154757,-0.017787577184668668,-0.01758516955026416,-0.01745249608455333,-0.01743009426322018,-0.017135343724657533,-0.01704197381163286,-0.016737288545913144,-0.016714575088034235,-0.016567202549347973,-0.016203714221362926,-0.01579659392501367,-0.015481652047937037,-0.015552730249573475,-0.01549930581443149,-0.0154013863030786,-0.015458752613848175,-0.01533657475049702,-0.015114726151221312,-0.014931490331770892,-0.01501761174901764,-0.015154844727502583,-0.015202854934318074,-0.015311259076609064,-0.015258609028464293,-0.015388446981415872,-0.01544503464810086,-0.015404710208942,-0.01531140834210157,-0.015437523786632334,-0.015163018883076316,-0.015222176365046068,-0.01508799942276437,-0.015279580988547689,-0.015665418536170046,-0.015755650783125835,-0.015642782432701674,-0.015824733538161984,-0.016419789073055673,-0.016653038672610806,-0.016774044933592427,-0.016586928159220447,-0.016351753668217856,-0.016432025193160844,-0.01656059748506978,-0.0169486632788479,-0.017177375747426622,-0.017338625218060313,-0.01747833834506055,-0.01761134099691349,-0.017585044874693315,-0.017609295988460585,-0.017769814813254986,-0.01792480480832507,-0.018037955090837204,-0.01797453412076841,-0.017584892606644382,-0.017633119640255088,-0.017621316283794562,-0.017675425903407257,-0.01742145339391107,-0.017339005111274324,-0.017483373383047434,-0.017380446103047103,-0.01716303370698866,-0.017019599769739012,-0.016861723905265285,-0.016924407389654197,-0.01685229934170948,-0.01651303972177048,-0.016454337859182835,-0.016445798869243737,-0.01666446109010761,-0.016881829544662705,-0.016837412966046447,-0.016793605569361877,-0.01676616468979594,-0.01669167179748428,-0.01675486683487215,-0.016832901922608057,-0.01687231541052858,-0.01699851078201817,-0.017032041413038147,-0.01703759474069777,-0.01675487922003205,-0.016456058243508678,-0.01640977385340716,-0.016563374217109673,-0.01663460725911604,-0.016559655209619068,-0.016496348061198672,-0.01688378179297375,-0.016809717574566924,-0.016663652747572016,-0.01681109871509877,-0.01658783090789588,-0.016499886814547535,-0.016213643417001544,-0.01621394990018047,-0.016128049405756423,-0.01612224059221522,-0.016100881373553377,-0.016272780381998468,-0.016303677081959383,-0.01615298787080303,-0.01598085178507581,-0.01600084853592509,-0.016115330888463647,-0.016217251184154315,-0.01629746572220709,-0.0164761618780201,-0.016573918211125232,-0.016769544893689734,-0.016898857596216697,-0.017103950663090516,-0.017015533471734273,-0.016867535504833556,-0.016939324098730803,-0.017111370330450425,-0.017108165064016963,-0.01699271200812067,-0.017051723054481445,-0.01719996173911125,-0.01775360988154989,-0.018212307219681038,-0.018251590937375686,-0.017972329921386643,-0.017902090099909854,-0.017743573201098952,-0.017788948169349162,-0.017863101225713104,-0.0175275717712355,-0.017455477804670494,-0.017498356546360096,-0.017260748184920086,-0.017026377760738745,-0.01667266649371407,-0.01653774139854166,-0.01671609992665012,-0.01667973640451013,-0.016638714539420462,-0.01649008303799495,-0.01644410364533702,-0.01632607043427268,-0.0161122371387531,-0.015923153160902734,-0.01576736729685533,-0.01573262522913799,-0.015461284526409855,-0.01545944003404286,-0.015542919059975197,-0.015587323861070635,-0.015529092312127775,-0.0154367143806649,-0.015326634935343914,-0.015340225790886793,-0.015379421030559184,-0.01530104901316401,-0.015503294522562218,-0.015751935181003294,-0.015891902668102358,-0.015850003955938424,-0.01595877878658099,-0.016089228039638644,-0.016203037930438077,-0.016518763731499454,-0.016708478271154504,-0.016732380023338357,-0.016744069276464612,-0.016829709208812094,-0.01680085624319312,-0.01683817445762123,-0.01698213019446335,-0.017102860808514118,-0.017056405910831483,-0.017129886760876428,-0.017205027410122562,-0.017212645667802246,-0.017178801958523365,-0.01719258129198525,-0.01720198726787607,-0.017178056328024837,-0.017312358880246646,-0.017294281228938158,-0.01722168606765853,-0.016867252727255443,-0.016932487288144598,-0.017478371651877034,-0.017871266003218613,-0.017874393091781047,-0.017732525303465453,-0.01780807481134025,-0.018085290729966185,-0.01810260036201021,-0.018045669693975534,-0.017796450991758434,-0.017816883211622257,-0.01777531982634227,-0.01763991529062731,-0.017420065417891047,-0.017152458074674942,-0.017089659814514248,-0.016911821405449442,-0.016513935396193682,-0.016383500220614015,-0.016379084304689966,-0.01679810451922743,-0.016707782195863365,-0.016235078110097938,-0.015988612488015932,-0.015894042609579773,-0.015785155570871116,-0.015545702523340263,-0.015643010290660377,-0.01578663240237042,-0.01579231393691214,-0.015683510939923484,-0.015506177190313598,-0.015263710010639558,-0.015265716077544787,-0.015749379562188474,-0.01573454853739056,-0.015432821510157844,-0.015304662197422436,-0.015271053426390282,-0.015249168322254689,-0.015235633735321965,-0.015183376065400808,-0.015519642770657585,-0.015225184401423442,-0.01492373009268794,-0.01447667360158836,-0.014427177967185945,-0.014417000325989826,-0.014195307304306836,-0.01390908002143905,-0.013813240501128811,-0.013795441704350493,-0.013714822163620079,-0.013752181799577858,-0.013731611884056378,-0.0133891891658138,-0.013234782374425519,-0.013073489469475476,-0.01286552738191436,-0.012676469090560739,-0.012619258617087226,-0.01253122184814632,-0.01256555020430236,-0.012720960330981508,-0.01280022167367209,-0.012766159670317589,-0.01298019790037609,-0.012824413399461509,-0.012685536478783106,-0.012543233707187474,-0.01255904313432727,-0.012637572417218048,-0.012571178828843895,-0.012575059908453068,-0.012586397413168072,-0.012618827116994245,-0.01258390122835266,-0.012656709746794257,-0.012849202662784274,-0.01266525829572059,-0.012652469765726723,-0.012786601541773194,-0.01310963717442863,-0.01322521468841714,-0.013289974234119827,-0.01343143150868615,-0.013918059314946848,-0.014045017850012453,-0.014173588180707634,-0.01434307109568672,-0.014362921140205811,-0.01433188177780732,-0.014420627421276026,-0.014586620556026155,-0.014554612372659934,-0.01460290291733005,-0.014813748825081744,-0.014762161572669418,-0.014866733357295435,-0.014786072422619125,-0.014556011391488148,-0.014320359311703341,-0.014070343588100236,-0.013731904015057573,-0.013765564640429603,-0.013735804062993951,-0.01391410321117486,-0.014110705717996948,-0.01421292472856392,-0.014288719072161005,-0.014399575610136241,-0.014622088732326257,-0.0150097730054221,-0.015136913105148853,-0.015132932413309394,-0.01534654144158998,-0.015455581434384061,-0.015428647845088203,-0.015348781172802155,-0.01512416265982736,-0.015185301535692846,-0.015284941709453687,-0.015085161801017379,-0.014882533468618769,-0.015017411776834274,-0.015288384753621135,-0.015334339291824716,-0.015320030483806323,-0.015389319653292481,-0.015585337781796462,-0.01588539404622704,-0.01622277474987132,-0.016626625386291408,-0.01695449768997906,-0.017149648541541312,-0.01725327893471954,-0.016950241730711572,-0.016853466583734485,-0.016819474102909796,-0.016737221843223637,-0.016782015616569234,-0.01711466741781912,-0.017221922435361556,-0.01723664351446296,-0.017000234285923434,-0.01674558496191029,-0.016756419345972717,-0.016834307453518056,-0.0167903792565491,-0.01699089196532615,-0.017165433491928252,-0.016973282861272133,-0.017031553693709463,-0.017133963524073176,-0.017099700228260652,-0.01725329150884652,-0.017089488860279254,-0.017009801061476048,-0.01686481758451078,-0.016796920468031728,-0.01685483683952536,-0.017034317963851044,-0.017147279611100866,-0.0170445858090094,-0.0170792614522276,-0.016951578384320414,-0.01695876913062377,-0.01701387443553587,-0.017155090423321993,-0.01755401143840295,-0.017866677064054964,-0.017698739922523517,-0.01712138021096327,-0.01658091663088947,-0.016556058082288435,-0.01688020203414187,-0.017091682358156772,-0.01690770584596533,-0.016533008855495825,-0.0172086306975249,-0.01774414894795644,-0.01802429561967812,-0.01822248613196129,-0.01804112713627988,-0.018010550633164736,-0.017992636681067934,-0.017904785977685942,-0.017181912311136145,-0.016883308198603564,-0.016303925865554524,-0.01611206650090358,-0.01627054220413885,-0.016890415661238594,-0.017123268832205486,-0.01715381804652817,-0.017262073287997753,-0.017382897100687987,-0.01743050453257695,-0.017192057874975644,-0.016984328869539597,-0.016896099520269357,-0.016717476782238734,-0.016674319058930014,-0.01641930534326033,-0.016087454451082166,-0.015772319724385364,-0.01581309430578819,-0.015992337542156124,-0.0155767129142569,-0.015425014281460377,-0.015533648636964964,-0.015684857185128246,-0.015842230809983017,-0.015900135397450874,-0.015996196468877528,-0.016071136453495477,-0.016132198741404907,-0.016231885040174344,-0.016456004252166003,-0.016594281412230797,-0.01660285831103801,-0.016466185580376946,-0.01654141013300482,-0.016879804485244874,-0.016915554432058003,-0.016874674289348992,-0.016864315446322102,-0.016895747027838574,-0.0171060338361105,-0.017340614775372798,-0.01754853103985267,-0.01741059205527949

Rotation gamma :
0.001397137162814397,0.0013850815644794396,0.0013833928199507607,0.0013113955018960756,0.0015874084272151877,0.0014814266582372016,0.0015256699509289195,0.0014786972890902324,0.0016481672471436886,0.001557517693161358,0.001440622603098766,0.0012725205748678851,0.001364699138756768,0.001327143334566033,0.0012613471094745153,0.0011099085751634823,0.001125318672748485,0.0012062217279082204,0.0011809864628695925,0.0010026261315252698,0.0009292999822962509,0.0009555365647191166,0.0008789203303700429,0.0008169881996014627,0.0007472236380566909,0.0007187015329193883,0.0007222360259479474,0.0008195856975940928,0.0008873169048544553,0.0011073751890988159,0.001109970030949475,0.0008676020196791934,0.0007626571496948492,0.0006349012861587038,0.0004950341340258047,0.00028195113443796424,0.0001657642794320579,0.000005119131384006318,-0.0001127907568925583,-0.00021561195626718883,-0.0003098549694388671,-0.00037690809370849546,-0.0005359744778221709,-0.001002168644880777,-0.0012887139706759428,-0.0008322217216556965,-0.0004012634556116625,-0.0006657272585291977,-0.0008606907027974624,-0.0008106244757868407,-0.000751295141235622,-0.0008229449768051023,-0.0013610275102248575,-0.0020621964478623246,-0.0024967101959581825,-0.0031458077219764,-0.003189071962893455,-0.0034190719687181483,-0.00421830376765517,-0.005015653706007119,-0.005023899256931002,-0.004964460781359824,-0.004814820832615396,-0.00427841825649299,-0.004317620660136289,-0.003887611671307977,-0.0032077453862842356,-0.002612291501596491,-0.0021533724554941604,-0.0020434328995354413,-0.0023799162175565025,-0.002673766472715186,-0.0031004665434241603,-0.0033514778079649075,-0.003348973424574948,-0.0034430014782642964,-0.003592438207577429,-0.0033328525287439834,-0.0030138202118468412,-0.0029292290593683724,-0.002991872303452534,-0.002196479877250921,-0.0018556957166741294,-0.0009491090815787052,-0.0005107387437133218,-0.0005366194246452191,-0.0003538602469355005,-0.00033662257851365117,-0.00061045117169938,-0.0010246565820925214,-0.0011349235259466948,-0.0013663552988342545,-0.002041430891640859,-0.002448976281498628,-0.00266922244510207,-0.002738760026293685,-0.003125693093505909,-0.0031445140631556276,-0.0032036646841256834,-0.0030841479385898467,-0.003156561420417252,-0.003339216872212024,-0.0031265382681308104,-0.002794063070845228,-0.002811169430119141,-0.002425487399549221,-0.002064741375604354,-0.001874295841485386,-0.001856330829130264,-0.0017868519846253575,-0.0016966784220159598,-0.00165346160476282,-0.0012935735336688011,-0.0012170929435530952,-0.001135591713882472,-0.0014561285857449399,-0.0016074776729908505,-0.0017290235545224517,-0.0017283136373678403,-0.001682858157025604,-0.0020647170369980324,-0.0022823128285451005,-0.002587759183121758,-0.0029026520949431696,-0.0027801913475089773,-0.002697865285794234,-0.002793227907388816,-0.002898142963654105,-0.0029422266706613954,-0.002386621140148789,-0.0016275643699027174,-0.001799755540913409,-0.0017421429100149442,-0.0016903604130285243,-0.0016925168025005621,-0.0016635578760068371,-0.0014478762021060583,-0.0013793762427448508,-0.0011540167050296437,-0.0011830603993786153,-0.0013087655413633488,-0.0013422156550344114,-0.0011826566526073894,-0.001121564451500094,-0.0012673987774934974,-0.0014104052348300872,-0.0010763029427009534,-0.0008719833437528505,-0.0007415076554007517,-0.0009402136088865604,-0.0011580276518999436,-0.0011583046882825598,-0.0011456258956816286,-0.0008429990303778621,-0.0008624092895458251,-0.0008736155586848804,-0.0008509302520683458,-0.0008333453296881002,-0.0008082345752241444,-0.00108493649487773,-0.0012278331603815511,-0.0011703185336619745,-0.0012339957581099718,-0.0013920905233903785,-0.0015890519121676695,-0.001776668511997434,-0.0022522414946801123,-0.0023382878864034694,-0.0020390879441247447,-0.0020514983577919546,-0.002060137140375204,-0.001796207648517766,-0.0013646249224179563,-0.001187253894398876,-0.0013698795328685837,-0.0009784128966946672,-0.0008601386304458054,-0.000794734600129164,-0.00083526692757383,-0.0007744366759512963,-0.0007303858252710176,-0.0004650997096667135,-0.0005256991092353073,-0.0004291065560733046,-0.0005880067780056515,-0.0007862047145113964,-0.0007958536641344174,-0.001010830052841999,-0.0014544041807654947,-0.0015621243410834022,-0.001504151597917273,-0.0015566241991711708,-0.001675430174058662,-0.0017239454331278493,-0.0017793852871793418,-0.0016062254639893196,-0.0017678966553899883,-0.0021633054685902095,-0.001987513615340241,-0.0014929794649179453,-0.001741618495413132,-0.0026900203209948596,-0.003291522581532498,-0.003202624744308151,-0.0030943854386842108,-0.0032787513138739293,-0.004108144829269949,-0.0044496653341346845,-0.004562682795419442,-0.004384569804006479,-0.004233258589150896,-0.004326025287432614,-0.004684191350490291,-0.004273110243526285,-0.003952321993435724,-0.003669716155219476,-0.0034444291119365544,-0.003459411375225821,-0.0033110980199862806,-0.002978901111051515,-0.0030627399556936307,-0.0035402120300332637,-0.00379113721033847,-0.003896089356243339,-0.003920730764310954,-0.003891632146803104,-0.004059137201072231,-0.0038988198446904343,-0.003975136155475933,-0.003942790420170505,-0.0032838931830389663,-0.0029479185661852514,-0.0028539176941007704,-0.002941453063591244,-0.0030328323028689136,-0.0031089851729546618,-0.0027834611802644935,-0.002702155078456644,-0.0025154760483887665,-0.0018531889441088748,-0.0016764117423435116,-0.0018064776037787834,-0.0018426317433530984,-0.0013917129829534498,-0.0010812609627785723,-0.00020928185122795847,-0.00008794354290015866,-0.00019839098003842005,-0.00012000016559739133,0.00038990375788675437,0.0006174999129373468,0.0010857758855484024,0.0015665611798826016,0.0017396395521897146,0.002074279438586786,0.001935293712150707,0.0018913702098116458,0.0019375892346274518,0.0020366337540883603,0.0015690521455895003,0.0017306117503434733,0.0017305785965397332,0.0017559760491359427,0.001539186899925116,0.0011067449787161808,0.0005765028528824354,0.00035771332915154587,-0.00006761547374499586,-0.00006725123868263107,-0.00019116009683801312,-0.0005829025120903949,-0.0014133138267929909,-0.0015700351789993312,-0.0017462576146303815,-0.0024857360426283064,-0.002334910747699109,-0.0021938999315028814,-0.002157228317624831,-0.001834277865411546,-0.0015855529950744916,-0.0017056172031355535,-0.0017760252220717855,-0.001399863019554714,-0.0011803982509001009,-0.0010271470116059913,-0.0009085942075861243,-0.0008844249402158686,-0.0004376714891710295,-0.00021663809641671525,-0.00024759474497607005,-0.00024113703884598336,-0.00011674002465364722,-0.000008576543695431332,-0.0002866297672449754,-0.0002325451805182198,-0.000048428317971578265,-0.00019085035660531963,-0.000521013829328376,-0.0009296902116292774,-0.0012119411545358783,-0.0006066044406512855,-0.00037409966048198304,-0.0002841948745987548,-0.00034495311522123083,-0.0001282706103719768,0.00016837285927187064,0.00021043215965987487,-0.000026752709275029355,-0.00004172479653021098,0.000051867459271896274,0.00015391008209704,-0.0006679814604252795,-0.00103000254739434,-0.0006380662757126533,-0.00044627467436645594,-0.0007138154207884007,-0.0010333234423050138,-0.0014695783419836801,-0.0014800417940618986,-0.0016718171620945814,-0.0017821956482958078,-0.0017244579793682638,-0.0017979326143590024,-0.002061449341365909,-0.0018813354532771372,-0.0018808143273293155,-0.0022685249290370964,-0.002345685754015563,-0.0019982247602169127,-0.0016874238729989875,-0.0014237194240940396,-0.0020337002145637065,-0.00232805664127715,-0.0021000119212674054,-0.0017940219805015593,-0.0017651280222166557,-0.001716881864288742,-0.0011459693038230142,-0.0010143165073710917,-0.0008190980863443643,-0.0007550105162322912,-0.0006134875075992444,-0.0006569273095562272,-0.000694874737228172,-0.0003797153900026032,-0.000036856642226691885,0.000019818666175474582,0.000018361105379785995,0.00018082730253743252,0.00014340669696031238,-0.00022707931563992965,-0.00046030686297274855,-0.0004996813504167264,-0.00048199303845527467,-0.0006088066064854717,-0.000529674199931272,-0.00040312475157237854,-0.000406089988149671,-0.00033848983781468886,0.00010689434334776214,0.00016014136630749298,0.0003444945145769361,0.0004462678617978003,0.0005023199713261938,0.000479924903021436,0.0005587304900309612,0.0004735802984663327,0.0001767107788287512,-0.0002530704675771928,-0.0002794818086055265,-0.000022249092960639752,0.00043145819199449145,0.0002453611965463126,0.0002939841337398442,0.0005596748827731032,0.0010543456851821683,0.0011181053817759423,0.0012053156678196802,0.0013588472909681509,0.0013661556735873005,0.0013432968747238865,0.0015966328016421532,0.0019112378206964323,0.0024875806297453614,0.0027977724780035734,0.002927358649576657,0.0027348760100924497,0.003273174382542518,0.0037717138610495306,0.0038557220213003866,0.004045904771942217,0.003561752017672187,0.0032674761496552076,0.0029880492489175164,0.0027085959506026416,0.002678270297737875,0.0029525163756058638,0.002664742202226276,0.002011291948538173,0.0019469985545238256,0.0018366044786770402,0.0014183165832618526,0.001212119861110808,0.0007822898678493762,0.0005324543793208082,0.0006185708988062773,0.0005772136751207693,0.00019465929431618296,0.00022793779624259944,-0.00035093641710262164,-0.0004940542647518234,-0.0010499977502177059,-0.0009193557883717002,-0.0006813043124595572,-0.0009510519745417754,-0.0010289433682197978,-0.0011206247618140582,-0.0010463223327053003,-0.0008531963924971427,-0.0007105593527021142,-0.0005662193170782277,-0.0005716096925020651,-0.00042124130263888806,-0.00027222531225768267,-0.00007302039073081588,-0.00015713203311739168,0.000002161715038971909,0.00008564198324222644,0.00030265734726716377,0.0004208403261727915,0.00017656647922795657,0.0003501143816708919,0.0004275468140761171,0.0005597754347767801,0.0007171705114539524,0.0010531923429252747,0.0011503440783720256,0.0014957973397290263,0.0013552511549957049,0.0009361826268152481,0.0012324175234272635,0.0014116782688884072,0.0020245806893357315,0.001967674972263967,0.0016985201882544036,0.001449769078523247,0.001843249693367906,0.002345851381637214,0.001955154988642091,0.0016109938652256622,0.00034594264118212493,0.0003591119165541561,0.0007016338110100409,0.0007132614592529958,0.0004438867361031928,0.00007470154707209371,-0.00015747224965150162,-0.000678714726306879,-0.0006379156221885573,-0.0004164136596931161,-0.0008495077993398566,-0.0018847638280090678,-0.0019501003680430689,-0.002116869622447515,-0.002884706135830363,-0.0033613721596602664,-0.004259836727915273,-0.004500815981657761,-0.004779545822006808,-0.004902280598952623,-0.005002675978556424,-0.004410830343945804,-0.003901002739164498,-0.0025103491507422414,-0.0019973436641847722,-0.0013965503720585104,-0.0005341802505505227,0.0005509729057755025,0.0008523870274212066,0.0012198219164523045,0.00141797190491452,0.00205045020972471,0.0021843931119991675,0.0026720904505640533,0.002580674447303281,0.0025710081899167543,0.002895546346668913,0.002929294607110999,0.0025121557627634365,0.0022393820003146813,0.003043289829064791,0.0028651196476182153,0.0020493107466848866,0.001842815044590538,0.0018126665323208177,0.0017115541491952127,0.001391027477441211,0.0011290890211206473,0.0008319639759736252,0.0005216813055389175