Acceleration x :
-0.073206183618051,0.024033457744680343,0.09220573428217321,0.04598147838427685,0.019587271441181654,-0.00960505777086364,0.057465305956313384,0.01627758748747874,0.045072569678700526,-0.11638673813822678,0.016698064222140235,-0.0044304652904480464,-0.037329223259643184,-0.011897291185666108,0.028664289033238307,0.01346769258234417,-0.008605416883289582,0.044597842006152494,-0.23137531818263232,0.11072578976708464,0.1316386952052824,0.029143699730769728,-0.04860537431419361,-0.022375950028351507,0.004260552654461935,-0.11516002762117422,-0.04404936411080416,0.026821407962776718,0.1793863521450199,0.023596160022669937,-0.030876585654693187,-0.027323149223125072,0.07874505367921665,0.06491606492025312,-0.06280084003168158,-0.021869534876174292,0.027190620301081797,-0.04550771882610861,-0.01408886810443364,-0.025744093020888974,0.04833370406622998,0.08041621089498512,-0.10671974159665405,-0.002069479200837668,0.02841109059030423,0.0903283504371997,0.031106158910156226,0.052495915479329414,-0.023555053977435455,0.012548190559161593,0.10292348198569379,-0.04146328400720376,-0.04138221356105059,0.03133101032472914,0.03313229444290045,0.00468259058772528,-0.00011821676051199574,0.0007120983586879447,-0.11628870285754091,0.016179321594641076,0.19819749039784074,-0.010642208524077431,-0.07063632856346666,-0.08317772976388223,0.1523583248273935,0.14526039332253857,-0.008305614806918311,-0.23985612801378592,-0.19905041743274776,0.16947715347856282,0.1954907887224108,0.02453219876376679,0.07899094559852965,0.0014568714339271535,0.06010381036689505,0.04205149112474173,-0.0763312340031378,0.14083374511986038,0.1578009816722013,0.025607876587705684,-0.09988037882959469,-0.07204312662146985,-0.009228730705182533,0.03853823143993504,0.047975926437391896,-0.013971367788163479,-0.08379383410192094,0.0471996585350018,0.020288485362962818,0.04773505318649113,0.06868652336967643,0.06467563919392413,-0.08626750333961099,-0.021790096981392705,-0.016350294247374404,0.13108395653250626,0.03484440700685373,0.01672638841761509,0.012642417314409977,-0.07835784445991739,0.021325114384724293,0.04057020305842161,0.03904969722656533,0.031905389846314205,-0.026712173151352908,-0.003397249785190797,0.04642733158878982,0.022151331509219014,0.006259318977201473,-0.00870800504150684,0.007078574354658485,0.032411209060158576,0.01164921644242131,0.03846569136010948,0.01931420382057549,0.01572007576065953,0.042292551605310286,0.029748520056391132,0.005136998133096494,-0.005235897067707265,0.03432972406654153,-0.09202706238017416,-0.0612685524304863,0.006782558541660546,0.04234427722597029,0.04473815922571812,0.03561319713897537,-0.03612537759494735,-0.10123746512751094,-0.08225094290832057,0.02302394277541898,0.11331028983495198,0.08140357796452008,-0.0343558015060029,-0.0676473028153181,-0.03797892847318435,0.046623561980365776,0.08789638318307698,0.03454280284492997,-0.004269910142096342,-0.06320175811592489,-0.011968395076942397,-0.00739910241276084,0.008947429545770864,0.037785789654415564,0.025457042540702968,-0.06045346405478194,-0.028364381354767827,0.003841231263848021,0.03202603196774143,0.01871792299443623,-0.012275996296457014,-0.04305074956147,-0.026103213223442435,0.0551978861807147,0.10557286398331633,0.07209690263532102,0.006664667783034383,-0.0013830980928294593,-0.09215923739247955,-0.01616678519840934,0.07310128020516131,0.0715628825235879,-0.023674814749450886,0.018510254468460333,0.05564092180705629,0.036183745302236635,-0.004324676817802537,0.043452982819965104,0.015322813221515389,-0.04090501537020318,-0.01818242445331416,0.010572189194901147,0.04159696599000599,0.052596224915492346,0.02013392955549061,-0.06513038352436851,0.03904366934457794,-0.03277784128230996,0.047321220821747556,0.019600181155104656,0.038287626812886444,0.013926200914097716,-0.03193835140099981,-0.02680631314163329,-0.007215036812191829,-0.03980016853399575,-0.008683448272274108,0.0074091323288972485,-0.0464801623211475,-0.008659418371893116,0.022120824489812365,-0.009877159560378641,-0.06922275827138219,-0.08666913380990736,0.0005938595412510039,0.001336574802610994,0.06294980634858366,-0.015840554626949596,0.020732980010739994,0.013904366966558154,-0.006168101596369524,-0.041021645753504705,-0.014386863528675166,0.04990150593880098,0.01976034243616741,0.03318357710556592,0.01861902120571467,0.0018423052536098111,-0.001181503114613588,0.01781068565613823,-0.037465394027053844,0.026007520596892573,0.013270828578172949,-0.03712434833730804,-0.02411152794957161,-0.09265169708454049,0.02495141740639228,0.02700023284511408,-0.017302736134000588,0.05655868053936865,-0.057507615294656714,0.03255302640035516,0.02509943387522362,-0.019307306005619466,-0.0033202641423995373,0.07991713879904709,-0.06568450114263687,-0.031207116800290532,-0.0016903503973000624,-0.01632573062827578,0.09572381627256982,0.022408078182686586,-0.02123362300925655,0.00861841336218058,0.012429705003846901,-0.02109326469049556,-0.06284902198838535,-0.0612910610898165,0.05431955984306987,0.0033167538715395493,0.01892103635959211,0.009287102408226928,-0.07541853047185577,-0.008456093231716658,0.011313493098475737,0.018842401040764525,-0.0023987148655476628,-0.0033714437716655084,-0.001286906282302516,-0.008995540149704901,-0.04707921505968552,0.01775643585989601,0.050917478048312474,0.016230067684478124,0.008670289679890265,-0.05925090616487432,-0.06346357369015458,0.0031711268642611685,-0.012193166576413204,0.0013387151002920291,-0.015370747441402636,-0.03430465584065532,-0.06373612528753,0.028251447615760844,0.0419844035381684,0.01805831972467713,-0.06061936780675314,-0.04384459421974606,-0.025075632874527944,0.06408603013716638,0.03968199921415653,0.004114075692990445,0.014424061725416685,0.0024464090547175145,-0.023931919899233614,-0.02071733263374772,-0.019651276588102336,0.0022127244526622234,-0.045889219823828896,-0.006536199119000229,-0.008712203438478172,0.019590292232041246,0.04039150375695899,0.026426239199307745,0.010172974443976999,-0.06567445010608061,-0.018564341009565395,0.010320968079922022,-0.006201379957352765,0.039087083794618956,0.07637890906976535,-0.0003578448074707921,-0.037332200668018775,0.02482607856024988,0.07117843608353286,0.06196564044971019,0.058929715953068805,-0.08389574184012599,-0.008267323485744419,0.015234883776312927,0.026723299616854636,0.05557157376473769,-0.03393719478473067,-0.13053278892314993,0.061970540387113575,-0.01305943144186167,-0.03599138280160259,0.01744834145003697,0.036205653456656724,-0.02207587795309955,0.03746075895113172,0.036289769809844434,0.06566217057981993,0.02054448996762512,-0.0754126487203408,-0.02002253931959858,0.03834929387224838,0.03354932112843962,-0.05910563420897815,-0.024880870637542102,-0.009398849407967645,-0.0067971881427452896,0.016708776270755333,0.04336868380368687,0.04718769410257227,0.03741488996581174,-0.028476945201016495,0.004706442677004088,-0.06103135527428239,0.03343685318031348,0.07226139531491789,0.06816560476811137,0.07648712781774811,-0.15614216334819792,0.004127815382331027,0.12447386334352195,0.0062125971835775996,-0.0783167817971669,-0.03852151320057455,0.05917442056229338,0.10612452478301711,-0.06357447758556808,0.015014699403702978,-0.036724062724015676,-0.018254479334305504,-0.048589656155253756,0.028949524298962203,0.05209082354346756,0.00033418244520671577,0.03926793852054979,0.12241443746252915,0.04054924703536089,-0.09215132808065973,-0.07860738964104093,-0.06208659538167994,0.09322991709760389,0.06971045958993491,0.040948311089235356,0.0002748714007869239,0.05069811337632127,0.09615686479443683,-0.03646878877171548,0.1360935191896744,0.10119247520831413,-0.001821086366945383,0.016024119616486133,0.06407623482893686,0.0027153847366847912,0.04530198538724799,0.042793176337517794,0.015512114973738788,-0.04839706989233382,-0.05218004989661276,-0.05590620341342874,0.11587282466618344,0.055538890771265136,0.04147217513313517,-0.06087109581180848,0.039375339851202444,-0.08147918221768922,-0.030852097384119405,0.10730331363826989,0.10875501941707916,-0.09992067430736497,0.00947399643258832,0.08146300740102305,0.04863381039081141,-0.07740253476276994,-0.04491024612330366,0.014204101115092634,0.02336930616396712,0.0994814791725017,-0.04095086837250273,-0.009598582364304456,0.028659124234353656,-0.08171464407453313,0.0674251342648873,0.036379578401590694,0.047971569922682825,0.06859275783873163,-0.01155751614604378,0.0055629627519840135,0.018541500131739302,0.028978362234379162,0.04235244226611685,0.014443068961630341,0.028132771405845414,-0.013376542558526851,0.03819263058936922,0.003742389411453041,0.038641477185278196,0.0477822807285469,0.07060189657090231,-0.07095257773867342,-0.054194193597463886,-0.07670110849514603,-0.03716039689822355,0.008394228097065934,0.15946531642153858,0.0519481910692295,-0.02250673680116888,-0.09281929047009907,0.16836407767012715,0.13994505265182813,0.0675755618865136,0.04568798903014976,-0.05035043244981206,-0.027239409612561574,-0.014879911167558747,-0.025591749720100778,-0.049649764234013856,0.002435747809274471,-0.012072776758379767,-0.03719481975763338,-0.01506757808512193,-0.029610693904722575,0.005360800376543193,0.03074675557981245,0.041212062892224635,-0.006644527464837301,0.04216333573507145,-0.018461324734729712,0.07714615798206068,0.029693344386608804,0.014755624917475505,0.015433020713896257,-0.06442416235061828,0.026440080494992434,0.009308539063544594,-0.021203584064019378,-0.021014687595528082,-0.018954776515701086,-0.016042877974238944,-0.02065560392559273,0.026251638400938825,-0.005750629669547197,0.024881240530300417,-0.010403274926869198,-0.009932441403082339,0.01209129651247058,-0.03383410201972583,0.030183975164475848,0.019996562344837,-0.002600705138107878,0.009274234935143613,0.013534728794923285,0.04165799829512834,0.06919806222154293,-0.016952291286602847,0.011974884183233371,-0.007191250082050101,-0.04834022057198453,0.009897446579870302,-0.02181682972469134,-0.057751872379309496,0.02428180191598367,-0.03745019417463336,0.079946045233123,0.018926792530232342,0.0801968599227257,0.039802766916458496,-0.0366490498426021,-0.05404973449232056,-0.04212850188370794,-0.03433956960712094,-0.07109313698683399,-0.014974316019320394,0.0384395477052778,0.07554124810264912,0.07448566093537956,0.05489648751476779,-0.01827274792664684,-0.035646514886687505,-0.057540193256852216,0.05884803815213963,0.07636143734515644,0.03092795279903803,-0.10586654970026574,-0.0365652805492864

Acceleration y :
0.012643465343891875,0.1390776404338423,-0.005204392821990768,0.039402255257591605,0.04657443474216852,-0.130246208800422,-0.0933808516093064,0.12857249430138618,0.27977868081843477,0.26649697351157664,0.01163704765565926,-0.023920528572250622,-0.042365890836156904,0.005729657092643901,0.024072951788140926,0.010845010220335098,-1.0166263356365264,0.048475733752269295,0.05959785187244415,-0.061167768070288,0.06882357548649888,0.16146949585080145,0.10257341730585322,-0.018230026454705513,0.012122374354035128,-0.012061824964458356,0.08243593495325185,0.10342575981887057,-0.004291928750603983,0.15055369569137692,-0.047558664573123674,-0.10205730274356901,-0.16171872137151658,-0.018094130823574958,0.193269331546966,-0.04149088896675966,-0.08018875881466082,-0.059471668209508055,0.06504696129092481,0.1443192126154434,0.08801442007217555,0.08639291981756686,-0.061847640093229704,-0.022946059800195505,0.07391093892049976,0.03247776235719211,0.015558941798639715,-0.23231557644112033,-0.04022884227484464,-0.10382568238927051,-0.16009305639844387,-0.06677143786281813,-0.03295291928800288,0.017687390353321095,-0.008859401919157244,-0.19477314197234807,-0.23853432309180497,-0.1854304180822335,0.07984465808472596,0.04106736175848637,-0.014897639762138714,-0.08011794946761801,-0.13073265887680463,0.12653329835766924,0.0409932599092368,-0.026235415635211392,0.013694584115309407,0.05836067932688165,0.07442194348282646,0.06584641370608005,0.062054547142446966,0.02579506287301192,-0.06444286248451099,-0.20604789337096735,-0.06814137450915295,-0.046500743884872645,0.04844039301082957,-0.1262525908533018,-0.1569833816790022,-0.10677609316008164,0.04613981531772297,0.11474182960856705,-0.04933048285150435,-0.04335712123005651,-0.10723872396945952,0.0814779583749827,0.13876290279570966,0.07224565432309173,0.013529718118021264,-0.050624573216075074,-0.005140991604913142,0.05404094383108895,0.050530985781643535,0.10571416301699355,0.06691578737010713,0.1304330822751857,0.1155291531945113,0.031134076680254655,-0.0019248449959974095,-0.04113662303583696,0.007912941677923663,0.03973429109039716,0.0465185946353944,-0.03531023442031583,0.17913305323738604,0.15653041374711318,-0.15226347701763734,0.004990550283555058,0.004082828888067161,0.02135387697161641,-0.009594956501957495,0.12387054542182013,-0.03582951590393204,-0.22360342380581422,-0.1022715117498301,0.06265857745020184,0.03718600398022681,-0.059715678698988625,-0.02532990217983024,-0.05249714388861321,-0.2124561895106919,0.1123155340434052,0.08172961331480182,0.02555315300907241,-0.07681852432973682,-0.05921337346634827,-0.07271538616011385,-0.038568772708671165,-0.0589337345410604,0.008750611778194433,0.2334953242775984,0.04783752261369954,-0.17760891241002827,0.16007228760505093,0.16941267340760677,0.22004089075233785,0.1115009205917362,-0.03648188114872901,0.09543245951002463,0.23170354549000038,0.053972956628794776,-0.12622527358811347,0.14672828305116853,0.1092839386620093,-0.14619619460161776,-0.12430646175420842,-0.26977214099103586,-0.4070183373471722,-0.24182719062473623,-0.017971657504665197,-0.24425211621671913,-0.050145187634718605,-0.16226442735446617,-0.15070972650330514,-0.051266784676327365,0.33830738735571503,0.3250768805131316,0.08198473885334097,0.01693564382918994,0.12139716844507492,0.21313620766410604,0.2905214990311302,0.3836427589893341,-0.11309772479650564,-0.07041478563412092,0.15895696504060178,0.21683624949213115,0.06058907313318923,0.2063873361920938,-0.27459861129941415,-0.07390313007337972,-0.0679153928667074,0.15436810288038103,0.08083180595855229,-0.21462356014503164,-0.20290674580102785,-0.11863250777102075,-0.31013292081616817,-0.0018179702487854227,-0.04720499686382245,-0.15048357133092358,-0.12208019140632823,-0.13865140524525194,0.28731579832499843,0.08370238382564857,0.06722565247029998,0.2833263998952694,-0.030264965695526915,-0.12061634766515343,0.09192707260441965,0.25113634103881194,0.2644378672909923,-0.08339388413205742,0.1744719660911709,-0.16635759668592362,-0.05363595235992688,-0.180696777156461,-0.09958143241563812,0.2923646426797844,-0.04413454447649419,-0.020045299140678253,-0.21007079221149905,0.09382970048850402,-0.1351339351762086,-0.000500760694910241,-0.03476706288774731,-0.0847687252823729,-0.13890080429590307,-0.060833832541340956,0.039352671361668035,-0.10143287810175679,0.04454528070185333,-0.12555025127022526,0.046529358058003706,-0.141929988524504,0.13832417345172726,0.1065801595960278,-0.0016055106697327572,0.2903261043231934,-0.017405608561652477,0.035810224398283755,0.23170391081618144,0.059663418788788836,-0.05440721529363654,-0.007997584899963111,-0.022282319211435968,0.17116432111421598,0.07993005307954736,-0.044867945918114854,0.0886567365637049,0.16376531517039983,0.12332704052911139,-0.07185190119857433,0.018173889520409284,0.028987799066293517,0.27003685634182767,-0.08639281935286708,-0.1857022024946287,-0.15436983817974104,0.185476339583192,0.2783999580774456,0.05728741037244908,-0.17664452435728162,0.018776237044442676,-0.29547839078614485,-0.020944748181453903,0.2919210270981304,0.2606899129343219,0.01469732685048948,-0.16840501246871425,-0.03335358392720809,0.034793587851780466,0.29502905784975736,0.27695545835755764,-0.0434549921139609,-0.316864311430417,-0.24266857335232198,-0.14431247234740294,-0.08357546037719585,0.1462986229296308,0.0816829246288631,-0.08293819452011958,-0.2028542849614285,-0.16976113978540525,-0.055263115170341916,0.20923088905494658,0.19109874604223295,-0.024262866603361907,-0.1576903974371962,-0.020285275059146804,0.15085713561736047,0.0941335696727503,0.10614936696332879,-0.052681460080109536,-0.1907305703169666,-0.14741730649494564,-0.005666315811892855,0.12239801605069078,0.1362766846037004,-0.19722090045064686,-0.12463429633593186,0.10669404089981689,0.0326745224717306,0.07348882735117804,-0.15788853209149092,-0.08340165644655935,0.013925587851100135,-0.1206635386745911,0.1509141904336866,0.04850653531590942,0.05611155325979925,-0.1898139851950109,-0.09852741158436983,-0.03823994946297025,0.010475699700618861,0.07226179717371706,-0.1028976990904659,-0.0510881036411738,-0.03436366515205009,-0.04776076301648281,0.019704107320460025,-0.016898421657917786,-0.08039357893806881,0.06779520968629513,0.2436571094656363,0.05192379184691235,-0.10576630419618449,0.06956743895662948,-0.03891835789789911,-0.033021292366075795,-0.055250050192791965,0.01912774704598705,0.09040282217920757,0.061065659402683374,0.035009965982241556,-0.09720091222096235,-0.13736378572066313,-0.10540357183101587,0.05386471961450297,0.05098018628729041,0.04713320570266805,-0.09631244808179326,-0.09308844453399069,-0.03954499732968397,-0.047736053266911764,-0.021326849684084298,-0.1996532238977961,-0.1423002009432297,-0.10826183820581063,-0.019660078665777108,0.05637416798505,0.17616720743542535,-0.1008894919400569,0.0839082907944452,-0.03056222019260749,0.07588581462346483,0.20921189209353178,0.18379479797072706,0.0133791409409896,-0.14101142150801604,-0.054521872915560377,0.22182152709141373,0.25374197522625325,0.2912053531094454,-0.0036763116092770358,-0.19716814735010266,-0.1693318997889757,-0.09762442572950385,0.02435741301901871,0.11577926463121548,0.0772806345493067,-0.17500565284276381,-0.10613178564086556,0.07422592772038188,0.05773931429183576,0.09511312789516523,-0.07567726817301008,-0.08986358246966264,-0.04817641287897713,-0.03963231485353317,-0.058224595324438994,-0.006433654914089129,0.09831849980773404,-0.1744766422662884,-0.06126024125986732,0.08633847708343528,0.012709023127082036,-0.055116272311867213,0.011026984899339731,0.01488495609379024,-0.07691150897596963,-0.009502884029533015,0.08890146857239306,-0.026061878849344793,-0.02538960789425764,0.12076389377652667,-0.054058904179465024,0.029396197204093914,-0.04128944811052643,-0.07870432894318365,0.05571109183328226,0.021318212003191,-0.04329804342000279,-0.010138150867412331,-0.04235776232862845,0.018041631168068853,-0.16142646042667327,-0.008742000925942557,0.13296707599852234,0.0779479210853111,0.014122190418723039,-0.14445050171175972,-0.15245169306611642,-0.10668914552899077,-0.11082857428812422,-0.021766156700090505,-0.061425428059208205,-0.13733616706137544,0.02135215308869956,0.13672468409952707,0.10365244471421464,0.1855657166333869,-0.1353438789993059,-0.1567664692590013,-0.0871595476753544,0.0686955058271531,0.14276999214575625,0.04705220832175109,-0.13284736774214542,-0.15530490880645811,0.09160305568128824,-0.0729183248536894,0.004607296576398948,-0.314128493258357,-0.2017630739249289,-0.2909210014764219,-0.08571336745503358,-0.04326091714685317,0.0579201690177666,-0.010928445011866279,-0.10441409500278531,-0.2827274841540493,0.046003726748703046,0.14945723309102468,-0.032510707928857296,0.27807876329906284,0.024931420364556832,0.10468218048759735,-0.09137656258218921,-0.04047920030672103,-0.007967591049676412,0.3673097926193848,0.13306033463939093,-0.08094373276727274,-0.06851297973394394,0.04731029756893403,0.09017770818644202,0.21374087729267774,-0.14522523067761212,-0.27998350094184277,-0.05224809646441135,-0.027560857835982458,0.052779020436760034,-0.03799580425946042,-0.22800361325982957,0.060663380478415636,0.01251387044774019,0.0753223309552297,-0.08971453852094709,-0.09714234130098484,0.16214763257438317,-0.14576835197783075,0.1021342039046809,0.05803952564769424,-0.11714405017839744,0.06438020904446021,-0.08614737495812587,0.004971640657930401,-0.12085380968283861,0.01970554122572066,-0.3011401794075034,-0.042087535119079984,-0.12026136021502315,0.004720653865447093,-0.20060957477455957,-0.03754644849018659,0.04843346551312133,-0.056002544493949966,-0.091969989297539,0.08829391286699101,0.1224372886151541,0.0910026421027258,-0.10091043426338582,-0.22532973614176735,-0.08191465102550573,0.016741620236076414,0.11842334026605822,0.24576893225414678,0.06591554255269001,0.031341890195058654,-0.05560675010939594,0.20304752424489705,0.09652646529180929,0.030816039690049365,-0.03521563092244323,-0.06837882282710633,0.10685950626037083,0.043322374143661,0.15327097355974836,0.21480200371816754,0.15699881671015173,-0.10361881643924861,-0.15565342998318374,-0.09248737336830236,0.16755979381622746,-0.02124836848723935,-0.22968763909032566,-0.09947984433784149,-0.09587233049832283,-0.141586198321823

Acceleration z :
-0.03804705495608505,-0.036101012621959666,0.018357020685105817,-0.04391407925938256,-0.026887351621745617,-0.0391164194869576,-0.0492724507876439,-0.05513871247253846,-0.09592936704833992,-0.04629849931104108,-0.03672448969898978,-0.036721432375512085,-0.024148035451502074,-0.03865794882946647,0.02598660110644996,-0.007555924955022055,-0.009452615147019968,-0.053461152915447015,-0.017277365372370696,-0.013359933917020679,-0.04463242469576653,-0.02383626380530186,-0.03299215760313673,-0.03852740408524405,-0.04108125328652095,-0.04271882789309602,-0.03790823557386175,-0.011897931648127268,-0.01384098173250095,-0.0384664950777078,-0.029057480468752325,-0.024555725769826675,-0.05708710202737711,-0.027468964601715558,-0.013449686568195465,0.01422519299382693,-0.00563700980230642,-0.036456849455460905,-0.036159327813610434,-0.013902574584982357,-0.05827114244648255,-0.0054987920666375424,-0.021385155742580535,-0.012377806994895216,-0.0026735166438695158,-0.010783608022454427,-0.03444536578586558,-0.02837944877644768,-0.01216853445865563,-0.044351100703468545,-0.01875563949769712,-0.06062437734201084,-0.00001530995308884826,-0.046388168622180814,-0.027086404158070215,-0.049479006210411895,-0.01571386749887024,-0.0373797935362556,-0.03500578299746848,-0.03142582616844447,-0.035731745484727434,-0.007425888242520159,-0.03389700433823745,-0.008538872148588415,-0.02069019574836129,-0.035350851841783146,-0.03865240957124624,-0.021779271909990346,-0.007725492814424796,-0.07388590037736575,-0.033042163907457144,-0.0072980018170870605,-0.025077779165841637,-0.029776195797894613,-0.02029455891072284,-0.05842615034510381,-0.008780140979244606,-0.021295504697749854,-0.028882795188704038,-0.007899530211323872,0.010797626273008063,-0.0857316428972408,-0.02180076907245675,-0.0681656002015341,-0.037297204703162425,0.024630037681630346,-0.025251640178693923,-0.0460764403584646,0.021726598724548237,-0.024797964427329133,-0.03198044839350041,-0.00029525094698274184,0.008194869029242545,-0.050041745526553126,0.0027824494903718002,-0.04422660210754256,-0.048291440393659284,0.004678408173774368,-0.034071596003451846,-0.06728959825171622,-0.05334266850177664,0.0167008372761833,-0.03167010151940631,-0.03212060806615045,-0.013603277686220825,-0.023522151788254266,-0.020765055649436544,-0.06549897937474307,-0.01463423045244417,-0.036330896404676606,-0.04129284564401023,0.002505792540036782,-0.0682919939270243,-0.023297030945622826,0.004096296580649504,-0.04362215167467948,-0.03405929821088211,-0.02973068985546706,0.0046935931848187465,-0.017133103771694004,-0.03270430568864103,-0.04455026283764746,-0.03289371818036307,-0.02409330045642564,-0.037091466697724534,-0.04426381971223745,0.042717905444488856,-0.07954788536154665,-0.07188334664960858,-0.023393390292453114,-0.10309309379840269,-0.029783253443054852,-0.02121948716933839,-0.018537215540622126,-0.010643496298865648,0.04945624182275496,-0.04849288581646979,-0.02784685115353204,-0.0748882869195193,0.01286227403510129,-0.09862815941195004,-0.010435213568247854,-0.050411994477896946,-0.009797282132535473,-0.035200510985124854,-0.03961959693585522,-0.0009044181903656863,-0.02115678121364908,-0.06892967534263152,-0.0633610631637508,0.03261364771352382,0.09894579226006753,0.023856998349365312,-0.1043417238863185,0.009107873954623938,-0.0816239701163955,-0.00405556556557276,-0.014389879752957494,-0.07479560366738587,-0.2090283156875521,0.10997526366072706,-0.12275962503785266,-0.003858936169308435,-0.002836597965680994,-0.027199712356412782,-0.03379715384308947,-0.038170873131998816,-0.04344209609976969,-0.016542923892778342,-0.06448671532596927,-0.05787272684657946,0.03373001830745488,-0.05745257433890365,-0.060604480764875186,-0.042581583980028516,0.003704685466279625,-0.024087612784444355,0.015094365627347724,-0.03833688191524707,-0.039222738538798874,-0.010774159774096915,0.01587811244165059,-0.0032128531077702063,-0.03947349842947442,-0.06701346189118922,0.04627516410122625,-0.08544453305155038,-0.048509763886034486,-0.1021965194180142,0.036950457641703544,-0.07863731898842378,0.005881037416451727,0.023795475137187168,-0.061685280005214733,-0.03650616848990321,-0.04378000911751296,-0.015444880115048727,-0.04939039634519722,-0.0034424797351050073,-0.04892331768956501,-0.010143367040291194,-0.061427154225413685,-0.004084077561537561,-0.020070531763345934,-0.07797424283665605,0.004447750070800248,-0.03221264743088977,0.006456319407868431,-0.03406466850574361,0.026613630980590823,-0.041762403951096344,-0.021151436034962532,-0.1145107881985139,-0.05314891776165459,0.06014544841838069,0.010628624098363798,0.0062319942913251,0.01894648018645821,-0.10755011887303553,-0.11832390761272982,-0.0003653541156634674,-0.06138182181292213,-0.1039366502167657,-0.05842859346393961,-0.0023105987614995683,-0.019662702164414802,-0.024190141577157192,-0.09080113731441088,-0.038593569223210215,-0.04069937782946508,-0.03803265882126288,-0.05120805392614566,0.021086830383131746,-0.011801224099780665,-0.019594198938889893,-0.02802944117882289,-0.053625933289411475,-0.019882002904324327,-0.03885436188413296,-0.036227764823765024,-0.07159470700053498,-0.021965914772602263,-0.018140599172160727,-0.03580705747695174,-0.06191312024460639,-0.05113233550854493,-0.037608193181362,-0.04739875673709903,-0.02905931166623486,-0.029895422280370256,-0.043833118411083706,-0.03814377049594186,-0.0400178527055541,-0.08645116194398142,-0.01750425690533593,-0.021108896084467414,-0.005504031072402722,-0.03163756465640617,0.004441983910772251,-0.0452830843239557,-0.03351208982401294,-0.007607976515134214,-0.022364403437741567,-0.02444115262958221,-0.04156788602599408,-0.016359604356769704,-0.05741226516140159,-0.038251096478069666,0.04801641371140722,-0.050592223582742735,-0.014391200635430867,-0.02174277582450304,-0.036142616424115835,-0.017433195254899326,-0.05405586283900775,0.018896650837006746,-0.02884143798172008,-0.037869474466051906,-0.04553214088131208,-0.04163614265634678,-0.0634474993381882,-0.0574861752144061,-0.004975829921747208,-0.03885033416298683,-0.03747991117617348,-0.0030379788855876538,0.02479912890453124,-0.063306373834447,-0.009160628196812468,-0.01680764609343605,-0.046129992610029875,-0.037870716575067485,-0.020026955199812072,0.014538816387107361,-0.07029328727945686,0.011707143475004704,-0.010860142715740949,-0.0032134450503479455,-0.01143750992050045,0.007137715525971726,-0.057952984441979785,-0.1405401690007653,0.02333767804984236,-0.06706958512575366,-0.009789548633940284,-0.017258915258583148,-0.007508336082540336,-0.042879818007932044,-0.04870849676195066,-0.06336351541574113,-0.02414824551405618,-0.06559595064292661,-0.00008652163721735632,-0.04887156010286416,-0.043661250709206796,-0.0434941687803017,0.01161591353608528,-0.027426449767395385,-0.0944655141740106,-0.023424803777446504,-0.028523337059433104,-0.11650179761894978,0.0019243172709124336,-0.046252774172904895,-0.02004935426128795,-0.058361665707570495,-0.047118213629513045,0.011726801448478362,0.011584174682461888,-0.05035434600652661,-0.01939860330155352,-0.011788667153951245,0.04494256835717242,-0.06791518737073056,-0.061623357217526056,-0.04323786049825139,0.016694812819128855,-0.09362214955189264,-0.14674630276504902,0.1278769680515863,-0.037165121022402305,-0.07971599020375869,-0.03941061666056048,-0.01588048477853881,-0.06750033209268003,-0.03225739532149164,-0.012463579873985145,-0.05864444187143817,-0.02707598779533291,-0.03100031249906169,-0.055715539679536595,-0.062353772117616606,-0.03481670614917529,0.0010807619228409748,-0.03560133088795701,-0.025760601197695358,-0.08589323580027558,-0.010748515017831231,0.04045989281805232,-0.06547867637223098,0.013846612322266446,-0.025067077392025384,-0.02806499654939398,0.07058876309469342,-0.015759710226370953,-0.045519710658001714,-0.007220711926085641,-0.02966649747887859,-0.02651940650863107,-0.03415781298218062,-0.03713001545969164,-0.0268087425607373,-0.042681413925578816,-0.004514707509921573,-0.019024162232282104,-0.04881191147065256,-0.10447853854112327,-0.038792904887325126,-0.05510303837095853,-0.029513526273716704,-0.061858211719593964,-0.018912579058500703,-0.03492222833328414,-0.029839563907287082,-0.08611973803252912,-0.028815808066830505,0.0010076521625018357,-0.03177897100464906,-0.0565201431938447,-0.008977607771614566,-0.05552251959177665,-0.041844903735932894,-0.08356595276333391,-0.02891977533138124,-0.017136036655941277,-0.007403101592799066,-0.06708930360637605,-0.06868020322674419,0.02633954272996634,-0.0360847875729436,-0.048369825692381706,-0.011019605310482438,-0.044219733975338744,-0.022643231795565225,-0.03441901206847978,-0.019458758823841342,-0.03582681477348087,-0.014443579276639501,-0.0003765558583372694,-0.02517115653771907,-0.05750906289964914,-0.0030178034618278614,-0.01470573848580825,-0.018811340323864716,-0.04123830244517885,-0.051373624317976645,0.0029475355396018127,-0.02636922548217699,-0.03596011088050436,-0.0664775192504283,-0.08532016688636504,0.004193818977626506,-0.03009457071481738,-0.08754547825301996,-0.03007494584902888,-0.003955429659345827,-0.07985013797744177,0.008129979107977123,-0.038671233002725056,-0.03627301503786584,-0.05513991804893594,-0.04366668036957271,-0.062120086659328076,-0.021715727987373246,-0.08678683277228846,-0.03799792315131053,-0.02588414081239607,0.0010180893602479044,-0.024844283220509533,-0.032878938453050795,-0.01207017609262839,-0.010113890925701707,-0.04527869127662852,-0.017619278711796506,-0.07369689431102015,-0.019252591560140718,-0.04362070863626431,-0.0014298661230481228,-0.04403818056308664,-0.005115333719737827,-0.044929768241103736,-0.026952797523792833,-0.04028858680517878,-0.05496039676356595,-0.055705292280158025,-0.043439863043488,-0.04612707913373597,-0.0024322084264844306,-0.07288351383521222,-0.02859981124557089,-0.025423624328291042,-0.01930043787341565,-0.03439835287294118,-0.040985067469626664,0.001691427824123093,-0.053214598842430856,0.01232605625806027,-0.0027926115518377625,-0.06861501990288961,-0.023432283831003587,-0.043047306362213565,-0.03812972370428033,-0.014467666830058441,-0.04691272221924737,-0.0070849218970543,-0.016066231450362827,-0.009204056917407433,-0.008197769947448977,-0.014819409727043239,-0.06750743768690154,-0.05867535759950988,-0.0693348266439978,-0.011031854012346593,0.0031748680326840256,-0.03828398725080769,-0.023890729372319765,-0.020458912309713195,-0.009109065260467468,-0.05268244189422112,-0.04061035240571945,-0.036145929475920276,-0.03715287346218247,-0.019899549977458082,-0.09170123709244653,-0.03485946757866768,-0.02452785594878951,-0.013570936044398695,-0.029395249639311803,-0.018757388496788915,-0.04119560494776815

Rotation alpha :
5.917980754554157,5.9176482752252255,5.917911855034569,5.918534542131872,5.919062951974613,5.9196448850783066,5.919966610333122,5.920199824314397,5.920647278501925,5.920880015072287,5.920899998785528,5.920956244662232,5.9210309228778835,5.921081119084344,5.9211256205530125,5.9212958742782735,5.921247853800309,5.921669202899489,5.921908097425379,5.921140365925584,5.921290931033121,5.921504150560341,5.921440441757068,5.921252283505983,5.921334497999496,5.921339688080781,5.920880795740645,5.920316504876761,5.920379077472502,5.920987297923866,5.9216072503857315,5.922134882980654,5.922654311300951,5.923272542303772,5.92411691037333,5.924077354785141,5.924261627319611,5.924544018494367,5.9246759721989735,5.924550313479674,5.924451507457769,5.924926058186579,5.925477225327262,5.925675414312727,5.925777588086116,5.926058083558923,5.926418094065597,5.926716196569691,5.927445748380936,5.927696326771932,5.928222316577893,5.928676342110227,5.928770032286531,5.928638819251978,5.928865656792214,5.929319957737311,5.929755354093835,5.9299696043802514,5.9297580327749735,5.92912266458949,5.9287589211102585,5.928974943066531,5.9290986774307575,5.928152552323931,5.927694053654841,5.927729190976741,5.928222536567833,5.928274670924202,5.927507756815562,5.926459069319701,5.925941039753803,5.925535346653425,5.9251974748769385,5.9250783328179235,5.92497296933149,5.924992961810105,5.925029790976712,5.924381866356222,5.92445426593297,5.924739026845232,5.925044766828214,5.925018005667458,5.924747388232542,5.92447234313994,5.924557202072031,5.924814591345905,5.924747916834969,5.9244030896794815,5.924194985528522,5.924140705463877,5.924311592022061,5.925127907126918,5.925352368107898,5.925169005817789,5.9248864372556085,5.924745844570109,5.924809698414312,5.924760258720247,5.924440058396238,5.924103754637662,5.923649741282706,5.9234238708393665,5.923406799025548,5.9234647912155625,5.923628473035873,5.92367303788232,5.923807184249203,5.923908447114121,5.923889661503093,5.9237768861677615,5.923727787618049,5.923924370564872,5.924170564898725,5.924442510163279,5.924606694334653,5.924613647737049,5.9247340765815935,5.924796518399862,5.924947129921294,5.925098965305382,5.925486427046355,5.925571551382829,5.925439588227634,5.925352076885104,5.92529798473673,5.925357173055707,5.925497600933501,5.925680577433581,5.9258235197907485,5.925671985855063,5.925308716097301,5.925086288919712,5.925191546931119,5.92551985817998,5.92574364054327,5.925900596435677,5.925965548238398,5.925942830727924,5.925928335917845,5.9260493956746085,5.925986337614092,5.92606115240112,5.926073960290676,5.925966457714692,5.92587311805864,5.925820664293951,5.925813694401981,5.9257382979673885,5.925637149302881,5.92535972365001,5.925234738686167,5.925286385899801,5.925032579018562,5.924766670511139,5.924365445793894,5.924016057682452,5.923811022089338,5.923685667564315,5.923554148329884,5.923287073699646,5.92294599760139,5.92226527675895,5.921774471294528,5.920814194188607,5.920273392705799,5.919828891699064,5.919516052735252,5.919169541353231,5.91888288444168,5.918555876421278,5.918328658026284,5.918071234785037,5.917809392392692,5.917634878531619,5.917441438848426,5.9172093292159715,5.91688814150927,5.916522647877067,5.915802501750843,5.915464810419128,5.915324230947906,5.91537667422473,5.915421068235495,5.915447132743834,5.915627816534865,5.915690407768229,5.915528801825031,5.9153162922230305,5.91528381004933,5.915334637259278,5.915121334467295,5.915026401516612,5.914466589491681,5.914353634697378,5.914189457382301,5.913976546288918,5.913594310838688,5.913205059015762,5.913038208382155,5.912820261472507,5.912702886419385,5.912691430898391,5.912785801997279,5.91267240001405,5.9125912084644145,5.912743738239573,5.9128980228957095,5.913356792382262,5.913665388691611,5.913807375237653,5.914111771735978,5.914378206833972,5.914542451912361,5.91468881944545,5.914977871764474,5.9152655702697885,5.915445596903019,5.915434737605239,5.91537031867449,5.915507708818555,5.915566891450298,5.9154594025325204,5.915292586501873,5.915203833048752,5.915129070303286,5.914948130525015,5.914682529328313,5.91454466395454,5.914406411004138,5.914269399758857,5.914100727371293,5.914040597949333,5.913953552827949,5.913798905078744,5.913561109325287,5.9133481133628,5.912971106555195,5.912801685888596,5.912462772701228,5.912232486603685,5.91208870692371,5.911908413233626,5.911829516288346,5.911917428301587,5.911754776295406,5.91163752875615,5.911526034126104,5.9115901643458475,5.911680041499372,5.911724984623626,5.9118823284847295,5.911756653206681,5.9115139481500085,5.911428074804361,5.911511367380059,5.9116140936997015,5.911740699172213,5.911770743933438,5.91174094386327,5.911717453052796,5.911801973382562,5.911972554606038,5.912198447505491,5.912413002958948,5.9122151984063915,5.912005271921546,5.911825989459886,5.911668860549359,5.911496805299887,5.911440754503399,5.911418547061643,5.911370724585286,5.911316056027032,5.911211921372112,5.911225974277223,5.911170695434745,5.911129013102466,5.911236972692569,5.911301991748832,5.911230366996564,5.911155270321609,5.91128834077625,5.91142832471972,5.911619452480621,5.911790382278968,5.912051030056123,5.912189045674024,5.912183902547985,5.912266412213723,5.912374472668781,5.912270885224981,5.912468462177883,5.912679443745826,5.912744074904821,5.912631182211863,5.912395306026321,5.912302732247463,5.912341202563632,5.912366117884747,5.9121637882557785,5.911921199201021,5.911736014328204,5.911612853880488,5.91171476536323,5.9116507469160995,5.911323463616416,5.9112805774219765,5.911020368050206,5.91077110493273,5.910712004064105,5.910564142231947,5.910371863994969,5.910227935479118,5.910123362946924,5.9101947689718495,5.910395570437468,5.910447479747691,5.9105691680472745,5.910717687272531,5.910806680056471,5.910783665852275,5.91093702098135,5.9111594908862015,5.9110934534547335,5.911172451242088,5.9113781504103295,5.911839749427803,5.9121968304342065,5.912564263664208,5.91296153515055,5.913146127148918,5.913148299141156,5.913220885005716,5.913495268193861,5.9135701465323125,5.91349142888465,5.913706975824061,5.914249370951877,5.914342092648852,5.914216587100868,5.913986206587311,5.914172457725894,5.914154371856692,5.91404922603146,5.913942946598825,5.913779918477252,5.913516884439451,5.912990450775325,5.912666050914664,5.91247379376494,5.912406941289547,5.912678240142465,5.913228298635878,5.9137773799599325,5.914042125675773,5.913985686420171,5.913819275479755,5.913828291190486,5.9140693835643265,5.914277698029937,5.914329665476633,5.91435835156875,5.914263799047209,5.914109899686778,5.914328220641556,5.914334277693543,5.914122997993711,5.9139937142716175,5.913825268262201,5.913853674584324,5.91391285725358,5.914173617191084,5.914363031594817,5.914279663615624,5.91409860482656,5.914274249464386,5.91457834794989,5.914786842642694,5.915076188634512,5.915298959623178,5.91591636773992,5.915728442564703,5.915702629715456,5.91596516423901,5.916253698766924,5.916481588264294,5.916806358717401,5.9172687814830836,5.917646634186816,5.917704540517392,5.917411298339839,5.917271832921088,5.91718141840022,5.9173727983782545,5.917601429859759,5.917578842497828,5.917409811205469,5.917111741126677,5.916970351133427,5.916943640888505,5.9169405219182725,5.91687310155458,5.916900522058019,5.916822211431442,5.9167874611201805,5.916889940135532,5.916941112936494,5.917137770718283,5.917429361320283,5.917685251435136,5.917461543154527,5.917136574519247,5.917246052960368,5.917634413625457,5.918296392066302,5.918754612868634,5.919076499601942,5.919404527941817,5.919538875167552,5.919311886237799,5.919367387631847,5.919771654480807,5.920097831432301,5.919418815741859,5.918913769844322,5.918635210411125,5.918287141143747,5.917930699207575,5.917429109811896,5.9170414434237895,5.9166162283521935,5.916144896143369,5.915580199998009,5.915021211637685,5.91451904029083,5.914030593838424,5.913553929492611,5.912854955647904,5.91249209131721,5.91213636914305,5.911924304277307,5.9117571593715175,5.911545624838813,5.9114106331642775,5.911331445521047,5.911328373669523,5.9113875615117575,5.911351807564399,5.911298108454357,5.911093764627337,5.911121841398316,5.91119374818285,5.9112574611272475,5.9110900273951765,5.911022033951721,5.911011103843325,5.910899925434407,5.9107643531276155,5.910835314558801,5.910969486579389,5.911053544188614,5.911224718362666,5.911220484548311,5.911115983138513,5.911028908103633,5.9108987548479766,5.910849699643192,5.910700048018315,5.910424767770851,5.910269225284864,5.910033015386302,5.909877113434276,5.909922589871164,5.909842381413297,5.909999583140619,5.910081664372693,5.9102527406801695,5.910674843088997,5.911041892494041,5.911565903628643,5.912128364847766,5.912350003906977,5.912380807699731,5.912293123012755,5.912255475711116,5.912225000830892,5.911998530590693,5.911551271126206,5.910936237180498,5.910455428308419,5.910193091408291,5.909955088795747,5.909964290498129,5.909934121104395,5.909964659886774,5.9096723007541145,5.909951031768155,5.910380801527738,5.910997319265559,5.91158893995166

Rotation beta :
-0.011314726563677345,-0.01128518582843605,-0.011395204816249449,-0.011607348857973935,-0.011898348796493607,-0.011572691459756765,-0.01139927510472132,-0.011669793058181025,-0.012425424239822474,-0.013978280252992442,-0.01399630345248545,-0.013975314555726535,-0.013948866742832126,-0.013912035975996223,-0.01390311190314166,-0.01407707680225253,-0.01255713454033448,-0.01268109227082294,-0.012905002241880601,-0.012692185171451053,-0.012681385227061942,-0.01270983986013171,-0.012932506300689468,-0.01292192706320962,-0.013000678298151639,-0.01293381563287591,-0.01275816031902426,-0.012967664691191327,-0.012934963878922064,-0.013578876881857691,-0.013730680946664518,-0.013642235170733725,-0.012951042346096437,-0.01303014892677721,-0.014487466667368257,-0.014546347580197091,-0.01426571801331418,-0.014228354708314834,-0.014241560684981577,-0.01451988635021338,-0.015042928319371892,-0.015376160184564308,-0.015538896762159804,-0.01534093699387218,-0.015489313965663156,-0.01568602557466638,-0.015809107495493187,-0.015282598442700397,-0.014936495776419357,-0.014997625884652376,-0.014952214745443861,-0.014743896107871132,-0.014698072111882187,-0.014600105081886777,-0.014606319494240667,-0.014231320013415677,-0.013520921632222975,-0.013278537740654782,-0.013403922172379132,-0.013482380778576341,-0.013268793369437223,-0.013083460571945215,-0.012949913209213444,-0.01349530921557311,-0.013779881621937107,-0.013768842649144833,-0.013847513855471881,-0.014038341862070829,-0.014063759006855126,-0.01420581197949758,-0.014287307404212236,-0.01427685879041781,-0.014094393033375518,-0.013427822802425831,-0.013021852601756985,-0.012829266407455065,-0.013081457699488984,-0.012706676222616873,-0.012361313404866072,-0.012078610134893687,-0.012125789518323457,-0.012225675845911386,-0.011927564797724272,-0.011745684781435742,-0.011378056856189237,-0.011574021398222315,-0.012003974961928158,-0.012225583217730051,-0.01207889832303564,-0.011983235231039982,-0.01198387267967957,-0.012311933903882648,-0.012624097867938347,-0.012841113638141062,-0.012830161089149392,-0.013021306679282281,-0.013213585704910382,-0.013228791881396454,-0.013181890799678258,-0.013167316457573009,-0.0129263746132267,-0.012824802383558511,-0.013124842123496266,-0.013137763046060165,-0.013426420058714084,-0.013747635673369347,-0.013268642414725761,-0.013209140969112772,-0.013301710951141035,-0.013295314390584335,-0.013475769316703927,-0.01381263995550603,-0.013953729223437758,-0.013173287945572201,-0.013099454848792288,-0.012974370435964685,-0.013084677028641956,-0.013169763495445876,-0.013111871449956425,-0.012952457953667573,-0.011792338317594436,-0.012000049492205135,-0.012128232149434329,-0.012363490545884603,-0.012197625549982511,-0.012111377779895845,-0.011748672405109037,-0.011852509369503715,-0.011564025263425872,-0.011498076004025653,-0.012292707419625924,-0.012395197090661812,-0.012099400254894643,-0.01219614847550098,-0.012510196714653027,-0.012947567397469535,-0.013609128111572735,-0.013638752200576969,-0.01404225228746498,-0.014657639914376385,-0.014729977000880901,-0.014336730820416614,-0.014503109325140968,-0.01510183088095499,-0.01486263390500437,-0.014369951117408512,-0.013578245750087786,-0.012818149039564651,-0.011903444305885006,-0.011613743909657503,-0.011097808496931637,-0.010698307033664017,-0.010427781728644173,-0.0100277073817008,-0.009775032124220567,-0.01028697372984466,-0.011163137153797312,-0.01124766417123597,-0.010800720802668275,-0.010890802807473982,-0.011118556528123498,-0.011558780073969358,-0.012088117507701205,-0.012296007271460239,-0.012063414892099337,-0.012172549108630758,-0.012450335200606927,-0.01272761732503462,-0.012997073851200006,-0.01226976109649656,-0.012022395716907478,-0.011808529441048895,-0.012243759194681328,-0.012311349468576878,-0.011738686717598618,-0.011306815416877752,-0.010937699162567828,-0.009698029261414108,-0.00978331576103038,-0.009635496351288415,-0.009379004514413477,-0.009168204028816906,-0.008447080981735033,-0.009016883242509854,-0.009165056253037457,-0.009059932054410162,-0.0094542263281167,-0.009693375193972247,-0.009369894486415063,-0.009547091182874896,-0.01024955338704154,-0.010525881084499065,-0.010930175040736399,-0.01127704313414467,-0.010921489635083883,-0.010352342378122062,-0.009789625654749327,-0.00955953287968116,-0.01092828736041193,-0.010817820794454525,-0.010558652052977189,-0.010129928703223044,-0.009841371890631691,-0.00959906541852795,-0.009542174984077658,-0.009847292914449276,-0.009803829124583491,-0.009204963987569918,-0.008888988341089895,-0.009674428969018182,-0.009565222993198364,-0.009968919161144214,-0.009842516598263941,-0.009720810978894752,-0.009559646505969013,-0.00946983014947718,-0.010097595858612782,-0.010143138504447948,-0.010632603550447503,-0.010655695054639328,-0.010218790431347135,-0.01131564506606724,-0.011814858791072514,-0.01166703127713015,-0.011634270597323465,-0.01158028426418729,-0.011889028980737928,-0.012082851076833398,-0.012220214645492488,-0.012306885159629815,-0.012521493238047843,-0.012570957568737181,-0.012408350123748904,-0.012124126852819932,-0.012226866963722811,-0.012686412946909495,-0.012761988690649567,-0.012146491549632737,-0.011881147835369303,-0.012428549869032841,-0.012855966173514389,-0.013247442433217889,-0.012565671526551308,-0.012657838268541399,-0.011987998267651394,-0.011916935816755308,-0.01268263077991603,-0.013197072634816075,-0.013699472183844633,-0.013236151261708814,-0.012236263343518291,-0.01221467431538556,-0.012838734486220832,-0.01318639667834664,-0.013464785912204959,-0.01238350517848431,-0.0120350262538193,-0.011603244165012088,-0.011452262805523456,-0.011845885461331898,-0.012270332666769784,-0.012135007904798472,-0.0116524403234635,-0.011497473545383658,-0.010747170529286932,-0.011471035055596171,-0.011916220966253357,-0.011858556983060395,-0.011197367386907136,-0.011178252172043818,-0.011274196871355705,-0.011443167297121382,-0.011743796020499943,-0.011689418694493445,-0.01134693242693242,-0.010607532116267663,-0.010633545790011927,-0.011109192657499914,-0.011387704934495554,-0.011322114140152748,-0.01100039842075804,-0.01123045678980597,-0.011347324473284875,-0.011839387233109563,-0.011644845525814703,-0.011419279374677663,-0.011397614757368196,-0.011114299988732677,-0.011329417348380538,-0.011472418625532173,-0.011398822263157674,-0.011131382108756228,-0.010779630147242852,-0.010796572112700792,-0.010681246605669445,-0.010667438404810187,-0.010386020111908319,-0.01024511646963214,-0.01020290402858993,-0.010012621852320047,-0.009984314371117669,-0.009825734497640418,-0.009540782024926057,-0.00982586203996777,-0.01017298543870049,-0.010055758024201418,-0.009808756749628502,-0.010377595008328362,-0.010301147660705166,-0.010188089791666263,-0.01005915545885385,-0.010012570503295229,-0.010343429332912282,-0.010359524599827556,-0.010620850473565072,-0.010491761140600882,-0.010070610322343472,-0.009939620893516186,-0.009934126128392127,-0.010319839211673735,-0.01042221073250611,-0.010340119944097444,-0.009721414455511381,-0.009632591832109905,-0.009430240215908608,-0.00945331652105759,-0.009235437648148303,-0.008880205738161267,-0.008796706529138117,-0.008688228971302293,-0.008915249040911276,-0.009150939640467383,-0.008914692077028443,-0.009250874749319342,-0.009220125326680826,-0.009428077930020203,-0.010130119904954467,-0.01047891932309051,-0.010553017477726015,-0.01018317257293766,-0.010106975173432018,-0.010629599893837974,-0.011525067109260654,-0.012480934467040728,-0.012444902847284231,-0.011789789141508272,-0.011423180734289407,-0.010901182021590815,-0.010944188053793002,-0.011250068345921058,-0.01146796402371261,-0.010552105401050959,-0.010517448355159786,-0.010680776487676279,-0.010897112267285182,-0.011236455309133404,-0.011028314679762553,-0.010765915693527991,-0.010451757627471383,-0.010419733778548832,-0.01025567339838365,-0.010330306193635296,-0.010390750005060002,-0.009948811707712016,-0.010015894458745586,-0.009857583852641244,-0.009934672429631846,-0.009938696586204597,-0.009892567569126792,-0.009956930800048436,-0.009735034658820757,-0.009773501393724541,-0.009901409480594018,-0.009829361291864496,-0.009776064863567087,-0.009856690102042459,-0.00987664856436191,-0.009942039048281746,-0.009947820794984956,-0.009933119713302218,-0.010157847487102165,-0.010155423412690958,-0.010152650772387898,-0.010204512971306942,-0.010361955566413217,-0.01042852102583486,-0.00997609737465748,-0.010138435886868467,-0.010626512228156708,-0.011018421449839595,-0.011087630336992126,-0.010533879889662685,-0.010266385374975992,-0.009979162453946146,-0.010340249973446642,-0.010276351858291047,-0.010078518284737633,-0.009518451233757937,-0.009526321610717302,-0.009800794664421566,-0.009953627607328956,-0.010542480768215266,-0.010352933408288113,-0.010065490846778258,-0.009589851588128423,-0.009627236628959462,-0.010221963485576515,-0.01036943228544112,-0.010357760072985852,-0.009901186907693253,-0.010068438000012888,-0.009831388173977537,-0.009997882349590637,-0.009098358019388889,-0.008885992078318878,-0.00839503194171102,-0.008343699108262973,-0.008165138630070668,-0.008330332827580401,-0.008270857623943579,-0.008144923102760817,-0.0077426102997826905,-0.007973804836053871,-0.00787675083137346,-0.0077708141193581675,-0.008616009513169064,-0.008947690188602142,-0.00902460760155458,-0.00861601895199196,-0.0085681419100494,-0.00871663126377037,-0.009267368851396382,-0.009777725261659476,-0.009749479624135209,-0.009519482389335704,-0.009442800500109014,-0.009511852065299817,-0.009866644035763978,-0.009605752835072397,-0.009110800626239285,-0.00900531286251016,-0.008883540239082279,-0.008885122283238353,-0.009154162686800024,-0.008738900600930806,-0.009011932489872997,-0.008749076316526213,-0.008829384088496142,-0.00837023664516838,-0.008151091364197045,-0.008276428500987079,-0.008013125024840915,-0.008262061264667504,-0.008348680368850938,-0.008313872989858266,-0.00837349805475604,-0.008296401372677512,-0.008282190943421332,-0.007929210750613319,-0.008046222805938865,-0.0076060184593146896,-0.007770816127972676,-0.007563611342698459,-0.007590599586347003,-0.0071813982130568286,-0.007017816764846866,-0.007039368672720708,-0.00711453900903926,-0.006845423836299879,-0.006957276201355409,-0.007122474989818849,-0.007413496198749027,-0.007146751087093655,-0.006757197957409152,-0.0063998888662614665,-0.006456326814124637,-0.006784095384333519,-0.007378795937096737,-0.007881228159554205,-0.008080349719851065,-0.008035509334208785,-0.008469821027192771,-0.009108581825560416,-0.009202128664040755,-0.009297915946934979,-0.00898698068192414,-0.009092501428277484,-0.009330651699182945,-0.00963941444181125,-0.010155182690277322,-0.010403727751708869,-0.0100017701445228,-0.009539980015946976,-0.009278632222847367,-0.009494609410845366,-0.00943005398755783,-0.00906322472956874,-0.00863360847731895,-0.008464102479308214,-0.00836487401943826

Rotation gamma :
0.0014225643835039106,0.0015929505301398518,0.0014467248675411974,0.0012927267440938227,0.0011613060632339903,0.0007658716062901074,0.0007930530588081695,0.0007663477531789861,0.0007597704916621191,0.00022571000606940418,0.0003419825936264814,0.00028396276904797576,0.0001902068943610593,0.00023664647793858112,0.0002814288015758107,0.0002136127766724407,0.0003129577759716103,0.00021304525762240676,-0.00036261224531184316,-0.000319844742911156,0.00012640371977731127,0.000003633864487425796,-0.000033257841734090256,0.000023413175312766285,0.000008050098319747227,-0.00011303388407413546,0.00002096164243521172,0.00020994145510443464,0.0006591534275380683,0.0008288010711746027,0.0004935527992539853,0.0002990309413701109,0.0004389037181266358,0.0004452608836349805,0.0003614609998801895,0.0002617157266343469,0.0002791146280499579,0.00013916737919317202,0.00003285940856378403,0.00003117602259391448,0.0000762254149974697,0.00010062145431951831,-0.0001802591986703849,-0.0004604127615430031,-0.0003947308913849104,-0.00026931154058540424,-0.00027280955500773806,-0.00021090641500117957,-0.0005430598812606896,-0.000776106686615487,-0.0006686885917640713,-0.0007463683003296496,-0.0008461979911532744,-0.0007535481436071795,-0.0008304246586806458,-0.0008285274921725278,-0.0008272543546005119,-0.0008661473198931097,-0.0012340048927517236,-0.0013142581072711182,-0.0007708906908836303,-0.0007153951546817046,-0.0009911522770636608,-0.0017112602167577303,-0.0011930768298179697,-0.0009728083686571519,-0.0008468698711783686,-0.001649433948213471,-0.002117879133018429,-0.0021606193798217733,-0.0019598595549441726,-0.0016777851716068871,-0.001570005667814263,-0.0015677689110660971,-0.0014445578677508301,-0.001327963149431955,-0.001448071984784831,-0.0008418260565922434,-0.0005883371585738132,-0.0005666402526405542,-0.0008472026839679705,-0.0009697581154260456,-0.0009358291168788817,-0.0007255102907818559,-0.0004976839105614968,-0.0006200362701302047,-0.0009617017736266105,-0.0008305438833182833,-0.0008634684757467706,-0.0006715019571203078,-0.0006412070432327935,-0.00043056173915005837,-0.0006331447007687197,-0.0007077743499300049,-0.0005910835025298263,-0.00025956617679919554,-0.00021148444692144883,-0.0001492335269855009,-0.00009899086285718144,-0.0002800115667765229,-0.00034353049224483917,-0.00024603847411777804,-0.0001520181839601207,-0.00009488308743843035,-0.00019056228817264639,-0.00018765228461210568,-0.0000193062168139347,0.000045274022959832664,0.000048376894351105746,0.00010978083354692641,0.0002395117556543627,0.0002808187433311927,0.00027698128335610896,0.0003195622919766553,0.00027356488243801894,0.00028911252006198437,0.00023449905718749792,0.00020137600671754586,0.00007127085212802563,0.00003037544999180822,0.00005464396027706064,-0.0002746844720670777,-0.0002831290272321877,-0.00026440263201799323,-0.00004545714708861201,0.00009191487346540272,0.00019843427892011142,0.00009795485047476511,-0.0001747098067173264,-0.00021870921168215863,-0.00008949466382621539,0.00021010826965440148,0.000518763424538433,0.00045159247484982055,0.00007743263345121231,-0.000048740065300170935,-0.000024057812841244183,0.000024492286811339857,0.00030760088257630023,0.000343893868771609,0.0003413072731539537,0.00021337853291120756,0.00022046404797523974,0.00009470695761090522,0.00006843811751808711,0.00034908648075955583,0.0002899307111895458,0.00029839238012194377,0.00018815074280306726,0.0005642477611733804,0.0006395602886726532,0.0006414884541202088,0.00039217323147107056,0.00018987267947404894,0.00029180606653397633,0.0005566150131017533,0.0007658853372506942,0.000770026770234511,0.0008277306362433897,0.000562821436227473,0.0003973571292053483,0.00022092961149024827,0.00011839717651374303,0.0002626897873933816,0.0002487279262631402,0.0003839725537516811,0.0005370109950643729,0.0004715501034070911,0.000741820874335912,0.0007721608733357627,0.0007074568483766175,0.0007707710505073923,0.0009972070039804598,0.0011294694940434302,0.00122855962251853,0.001273408415149758,0.001270433247329559,0.0011761799146632493,0.0013740920408538745,0.001522305809470944,0.0019076728445356795,0.0020315042561941873,0.0020132234809158403,0.001990408187450616,0.0016196603429294953,0.0013766550787123832,0.0015713761199916557,0.001770559179403911,0.001594402948416064,0.0015659011690501887,0.0015239646986857265,0.0014370106732834284,0.0014040028736513634,0.0013978357166745709,0.0013000283460674305,0.0013738434003157923,0.0015117295368975354,0.0014850271024006954,0.0016764230357613093,0.0018379594382134654,0.0020154904078044,0.0020939240174718816,0.0019095778367429828,0.001818088747493079,0.0017779995626553506,0.0017387532310171544,0.0019263691688456233,0.0015346813362265958,0.0013380693190204658,0.001554879348427898,0.0016781557850182045,0.0016995205189471209,0.0015594728875898494,0.0016375528633815277,0.001405323498316431,0.0009938926626386479,0.0005977768506271402,0.0006295241716510699,0.0010004612852307488,0.0006963123641344226,0.0007786809811236624,0.00047782283244941624,0.0006783653253151689,0.00046184164095787537,0.000427688523580427,0.0004911935626068077,0.0008992456663867882,0.0008386411944328591,0.0007866693336774594,0.0008438184890436169,0.0009171525783866901,0.001042192021270101,0.0010415083316840607,0.0012192720318565079,0.0011811914931919973,0.0011282437889548668,0.001037107443873518,0.0010072795960166287,0.0009704765862920669,0.0011291248578838204,0.0010809421510916649,0.001152968034510819,0.0013113838025175595,0.0011293612137813383,0.0011675415022024441,0.0012878428481263608,0.0013288391696994783,0.0012365301167234545,0.0012136567425068809,0.0011689282313654707,0.0008257989970227722,0.0007572212205101433,0.0009665268214554929,0.0010945788693322218,0.0010611545543001066,0.0011301235334840736,0.0010523631187171892,0.0007037087406484999,0.0007295393992716934,0.000785648540438605,0.0008095950016125577,0.0007282002871053043,0.0004921533650237415,0.00035000714718771845,0.0004150765850663621,0.000708452853503716,0.0008289109354313259,0.0007188595718303752,0.00045787169908773366,0.0003445001630650968,0.0005146369110370797,0.0006075326357703971,0.0006791607177863134,0.000879068689560414,0.0008950026187057633,0.0009603282432312945,0.001059783597849642,0.0009663346838693935,0.0010103925033418323,0.001185211622427782,0.001139598497127008,0.0010563109868393366,0.0010083926261802148,0.0010540165977491551,0.0009216691340307605,0.0009463497000763521,0.0006850118598365642,0.0007181536116471151,0.0006260611725270855,0.0005408476343593794,0.0007902792185156878,0.0008327863685113229,0.0009368131360227553,0.0007856305876151351,0.00074912686623674,0.0010274004646392344,0.0011276134638085447,0.0010404567068883993,0.0008493402981340598,0.000675219622733763,0.0008268865914954107,0.0011049914691696999,0.0013066027492229907,0.0012329074904203188,0.0009663299712401382,0.0008676972394355677,0.0008587103633143459,0.0009388272027918252,0.0009979170953979025,0.0011756658230024648,0.0013814323429240096,0.001566497398891044,0.0014875417846176877,0.001589930300198706,0.001597762803271925,0.001311849001709646,0.0012330778382769522,0.00121647366102547,0.0013702491189533073,0.001281682567896529,0.0013165115730235334,0.0013094384155338437,0.0011509385990128567,0.0013327402657490022,0.0014828430039767158,0.0016732550276849396,0.0016322011333432093,0.0012101625812703284,0.0012291086420366686,0.0010355174241520268,0.0010002198411897317,0.0010695435177075121,0.0012735808081413749,0.0013558155640692952,0.0009837564917094222,0.0010744892710092657,0.0014521703644679535,0.0013654681720219402,0.0009365809988290264,0.0008611293486183141,0.0007866075563517996,0.0008665917040105052,0.0008065764856891974,0.0008188441268901352,0.0007236281143755167,0.0006865599060404899,0.0006976093953901781,0.0006948620916860962,0.0007612578467585144,0.0008204670742669249,0.0009091746265651635,0.0012349217359028145,0.001221030533587178,0.0010961014660387505,0.0008899215645161791,0.0007006220967799542,0.0008387041862695741,0.0009939864058137171,0.0010277376974985233,0.0008570273109761333,0.0007659406761425178,0.00081488904899745,0.0006823194028277431,0.0008776160921947517,0.0009880517807858047,0.0006892727111123111,0.0007921812204878125,0.0007597811509611521,0.0007302236800443898,0.0008126524485513046,0.000915894796134761,0.0009206899682644911,0.0007695159603937716,0.0003923141615916172,0.0003145086969856281,0.0007270204168274325,0.0006537799322492673,0.00045548565673166806,0.0001341331220075227,0.00008945161939001976,-0.00041948480510283815,-0.0005466167438523379,-0.0001844560366082874,0.00003373362380573678,-0.0003395095240951037,-0.0004625639144693559,-0.00038762315197475084,-0.00038165133757983333,-0.000636836864103174,-0.0007305321770146942,-0.0007465569391771198,-0.0004146453783966806,-0.00024134617221885333,-0.00026449412485237577,-0.0006386828619408251,-0.0006336325454739608,-0.0007159238660954401,-0.0004972991629451044,-0.00035276700964041843,-0.00010048396941110389,0.000009269903438233064,-0.000026907225379349405,-0.000033208487131063275,0.0001387192001706386,0.00026464619588183045,0.00025890132124362086,0.00002257931510451016,-0.00010690935581215558,-0.00017711947904514272,-0.00023246643803317686,-0.0001222242903201885,-0.00007986413882418745,-0.00009644047804947284,0.00006379634795122729,-0.00011959163138146866,-0.0005772660793813842,-0.0007999077950614427,-0.0010477653630207814,-0.0011154113742675115,-0.0006817370279968653,-0.00038392389634613945,-0.0005278433639783248,-0.0010026273394520581,-0.0007194066664907008,-0.00044597464097106564,-0.0001616696728493798,0.00004083040304648263,0.00006840016874074593,-0.000029971432350940532,-0.00006958799953169184,-0.000030139523077266367,-0.00024720237613276444,-0.00035520567666912106,-0.0004779264511704443,-0.0005712236173719097,-0.0005845324181944161,-0.0006579474271455813,-0.0004398593995983962,-0.0004345109828123045,-0.0003420015144367929,-0.0004058372328837595,-0.000316932277751659,-0.00025370921733612443,-0.00011525853711103088,-0.00005241657600645186,0.00008226236650632008,0.00015051880121330868,0.00017601064788441372,0.00030985432161359224,0.0004851354955645225,0.0006210473456708393,0.0007085984791293065,0.00036120636623285154,0.0004304889407282379,0.0003057589545005471,0.0002985521292388222,0.00031175354313458213,0.0004382983850100065,0.00045050146956400656,0.0004177479069760828,0.00041499206920215165,0.0002762985119868855,0.00030955112832113977,0.0004786321566109014,0.00044831515933868186,0.0005344069356809911,0.00032883428712721384,0.000344970414584474,0.00042057780707075186,0.0004774435508156846,0.0006710085159903706,0.0006265091757738594,0.000580590429446944,0.0006234460147503611,0.0003936507868381821,0.0002280459184658353,0.00016371964789574893,-0.000041617687952484433,-0.000004034814516289839,-0.000037907151790171423,-0.00013642676480335464,-0.0001677673017760101,-0.000397985219384607,-0.0005004450152339883,-0.0006021854907475091,-0.0005724582811407094,-0.0006545972835772834,-0.0008076746332872346,-0.0008222473367362948,-0.0006077579678585906,-0.0005458924437309287,-0.00048621396668210333,-0.0002882005947129467,-0.00017977206660864078,-0.00040391385909971866,-0.0001872394977551026,-0.00011153333617461804,-0.00011727891245923032,-0.0003740628879799776,-0.0005438590388872183