Acceleration x :
0.007180979278963059,0.007114477355923736,0.0226618862636853,0.027487623636412897,0.01651464878800907,0.027936349218024403,0.019992888533428777,-0.0016724068881776473,0.016549633336422266,0.01623663556422689,0.012550106238323496,0.013930813157133525,0.03325822009422118,0.026052021892322225,0.04717120875865221,0.020906290751032064,0.031837080700322984,0.02553352814328391,0.0663041263117455,0.028881653544388243,0.03276933831544593,0.047203654290107075,0.02216461796576623,-0.0011142903752821439,0.004010461481944366,0.003382296527942526,0.03741764361190144,0.05009942596396431,0.06931806730544195,0.048610676110396156,0.037727451629878485,0.005228045408925391,0.0020929735273290135,0.00003594229657340975,0.03285452096442459,0.0398062009825604,0.05073869654845912,0.002152458761697926,-0.02595474466346204,0.03682044490373228,0.061551214429922396,0.027632573648612012,0.01901719820195576,0.012107043212518329,-0.003777178453277156,0.014253470381884835,0.06024437874821014,0.008878027846169425,0.008476416783826424,0.03585013400027528,-0.033694887628569266,0.0116102623967221,0.03748843012605794,0.046859713390376416,0.025751922417606692,0.024818390727427322,0.04329744063180405,0.02879511462196242,-0.011180741555790881,0.0101682617362414,0.0029499709523384808,0.05342159265661612,0.022398161860159596,0.0014288016824291843,0.017829336699325356,-0.022096254020847843,0.035648074372822885,0.03307975597148761,-0.011532328047504415,0.031131978338002225,0.04920971971577964,-0.010479629240353824,0.022022604262747335,-0.013823072758119087,0.02472915524112759,0.0028793185813890884,0.020966108346602414,0.03203176302220672,0.03803637601515511,-0.006600223103052121,0.04537526981916744,0.032753478592610914,-0.010921652228187303,0.00577371200514608,0.04596164573922287,0.020710786445240954,0.010957290938793447,0.02545999711619224,0.020997076590312642,0.03407977702661883,0.0071319028439378596,0.02264074986082269,-0.004327042304824863,0.011377982302586314,0.015522451421373989,0.0022099098713071726,0.0075365649507148184,0.03460168429216137,0.0034926921062244216,0.040940027318079955,0.004449338383454596,0.00042621267679151056,0.02763357829560991,-0.0006028701117189485,-0.04084981915082317,0.01916395429546246,0.003531060202978551,0.016281799013359705,-0.001804667523806711,0.013305128139996668,0.024464633969869462,0.039267810656386425,0.006724142314487835,0.009286985960506717,0.04959066359107382,0.0048932553592079785,0.029879893634386825,0.006444216836476698,-0.013614841401495504,0.03201673213314497,-0.0011193421513795328,-0.018014409801003058,0.011448358966433442,0.046468471883353776,0.03423084168577334,0.015717406596249203,0.029293453782249707,-0.00538385987925576,0.04374811157532967,-0.014307335443992632,0.016978210037504323,0.010247051177051616,0.003442781129204377,-0.009874318007676628,0.023999681055953258,-0.025655133812513668,0.016477378667675655,0.012719521688210078,0.012239367780229077,0.025915332818392197,-0.012458734735508915,-0.2595308608260006,0.045842293675872496,-0.04448495164962951,0.01273994456337532,0.028194303751178085,-0.006338275098081794,0.00954262124323286,0.03190193979719188,-0.0323992332112859,0.004150608596506936,0.0389313680765219,0.02083644495179178,0.02798919136682525,-0.002415605493199837,0.011931023350264877,0.0018988641681862645,0.01412127253669314,-0.028980723154824226,-0.021374453968764282,0.02360388667139923,0.03517627844287781,-0.012329895607894286,0.020190808558592108,-0.010194140529591823,0.02480934205458034,0.2701034918372519,0.3040197716981172,-0.06974288685508072,-0.022498907404451166,-0.06957938968932721,0.09197978917234577,0.13423295861533843,0.21937263610195368,0.1936778758152388,0.4566915920546278,-0.9251820507135242,-0.1078110439646989,0.5613843213357032,0.09460440205489284,0.06784967068673577,0.24466864286204798,-0.08069620601329952,-0.22946413253275677,0.43063685761541126,0.20694772828752173,0.41149939175136385,0.416026002330333,0.012514082793582928,0.4003101449454203,0.13235256082937122,0.2973313069101423,-0.006534971280538593,0.06802615063164849,0.24112704299874602,-0.423119285059534,0.037855521289224266,-0.12711189283006824,0.23267162333717567,0.13998466314300895,-0.24119844600083304,-0.29863663562135767,0.35728549793958664,0.17504803067976607,-0.4571594652947038,-0.09229596071573905,-0.15869931875141335,-0.06452338950796983,-0.08408051468934863,0.021792715913453137,-0.12637807126333936,0.13595675020064227,-0.17712242580102755,0.33257527344450355,0.06348411415468436,-0.274109183814656,0.24182583891786633,-0.03769567053541541,0.15788250420950353,-0.11947920599454082,0.12904701647795735,-0.2796823443044908,0.3616184856425971,-0.10268652229150757,-0.7829891369365155,0.13126199824684298,-0.07210803595068864,0.04288143914286047,0.201196818344295,-0.23726090562250463,-0.2820187513628043,0.20317641132157294,0.034735925680678334,-0.07404368475496304,-0.10316260623750276,-0.062397328131552784,0.26123786567328494,-0.29837537260297686,-0.26382983666155485,-0.4169144756026566,-0.37729481473471965,-0.22880628967853262,0.6770124687921255,-0.2226730476205237,-0.40907150701731443,-0.260657015311718,0.2239712707375176,0.4689045924177393,-0.582875181925483,-0.257428372121416,0.3609139906350523,-0.07062825485486537,0.5157809464156627,0.2239656812469475,-0.03374033648878103,0.3153257767515257,-0.09495442106896079,-0.7342175803091376,0.3942329439235851,0.2597345484382473,-0.14323206583270803,0.12801655918536706,0.25720612593917175,-0.04688992129897233,0.2730682233943604,0.0733792431965936,0.10287703076177276,0.22281373473284766,-0.11943337582512759,-0.7335275522183626,0.5501672366747632,0.5134575449693948,-0.13164001951268872,-0.08493487562951631,0.09835876788604073,-0.4973125023869797,0.5645068738030269,0.5175607059719041,-0.07757360788020305,-0.07329182977462187,-0.17437844258882104,0.07223141573518514,0.009295683006904436,0.29284159427545964,0.13244056790638714,-0.29874592294842,-0.15359271632740273,0.17685252281846478,0.1342369041380938,-0.09418261471255682,-0.07021478324972559,0.036984350778150835,-0.032591835457226256,-0.03807497729276074,0.13971225767610593,0.03163020333385793,-0.021246598938549868,-0.08899314717752858,-0.1311175574080087,-0.020560272058646658,-0.02750878743873909,0.045264895646716465,0.07425951032957527,0.0396413886425551,0.034430983350775206,0.012654548426909605,-0.0152505528445472,-0.013693469870457192,0.08056839664885773,-0.08266171566629782,0.03632852178449975,0.01388139365799143,0.08215185731486417,0.021943138968502172,0.026226652373443356,0.019929241862823254,0.029016881313594055,0.047644461426744236,-0.0351094739840948,-0.02856310966410674,-0.05844032956750597,0.0094383993919997,0.001319088093920436,-0.01025023978962563,-0.018845468639041064,-0.019113204780692467,0.013400229394790948,0.028652692210278472,0.038158166630764025,-0.020024089672579428,0.008362319709261646,-0.006264839969112654,0.0795140104914084,0.043633668582537206,0.06610175844032783,0.04694733687490225,0.02316174152762396,0.02822648898772895,0.026812327323888892,-0.00861821814100258,0.005941731224034447,0.008452545572005329,0.028788107209152074,0.0007394326771882333,0.03267016139044426,0.03685079894280061,0.017701424586895154,0.024848023247288072,0.028220837848365772,0.018980935011908878,0.052207979083154346,0.0265108647258603,0.013870320849772542,-0.03117019830640638,-0.017195976407453416,0.04382879386241548,0.04382879386241548,0.03522318175794789,0.02962242315842304,0.003084333640564,0.012486928783531765,0.025178926568932364,0.0082732999937376,-0.002635332922672387,0.028301191341888625,0.023716087474755475,0.0330223769281758,0.06872945376252755,0.019728983750101178,0.03622133051640121,0.059105004021315834,0.037995580497174525,0.04753712402817327,-0.05693888919572346,-0.02863882808170747,0.04568749583980534,-0.020396174387983045,0.06778777986508794,-0.0005228252546015937,0.04979913697629235,0.014536858467105776,0.028091425615304613,0.055305424508685246,0.030150387988705188,-0.01075557266299147,0.02040083686336875,0.018474157958483554,0.012940580560365924,-0.0024472039245723863,0.03257157812048681,0.006266926324099768,0.011480915237386943,0.0037497427424910707,0.015886390504584413,0.0767920381816104,0.027085550208122002,0.007015275885569281,0.02295272243642248,0.009340206564398249,-0.00598512797858857,0.01037760162949562,0.032444163764978294,-0.004787793396836787,-0.0005387591843171322,0.02932373703937046,0.03614448187092784,-0.003411656480222882,-0.02086923754311865,-0.012807606397039489,0.05104199947712477,-0.009044653688170364,0.0004585605619809939,-0.030096315147331913,0.007592482689302414,0.07126079430447425,0.007460336788927088,-0.022112527018925174,-0.007364517439858173,0.008145273146053659,0.02967771070934832,0.027276937744510357,0.03728818342977902,-0.011437461971439187,-0.051036871210858224,-0.033684452999522906,-0.005411596127907978,-0.009056304739235202,0.015812699647288535,-0.0033426026967266803,-0.018979671211651294,0.06323692076085136,0.01673286496581859,0.04174814253030345,0.027225780662719624,0.03456040928356815,0.010092140318197197,-0.03055468534012325,-0.009803517793788342,-0.0024364436414849476,0.0033700620966323185,0.024963685516209807,0.009248891002155141,0.03694289310646709,0.022214772683847694,-0.01943832567387726,-0.02230946294668829,-0.004443720066365495,0.015941227106004954,-0.019089169742912054,0.02069584232114721,-0.010618192894250388,0.025747979178139938,0.02398576897832099,0.02260111653675558,0.026662598388583862,-0.0043668020659999454,-0.01525095470334636,-0.024758904208708552,0.024457644823368173,0.045137889999873004,0.02531048965988448,0.04482365925181657,0.02437792380079627,0.04969146621758118,0.010236020609672413,-0.004267622857709648,-0.011829878230462781,-0.010652568946243264,-0.008957469165883959,0.01889598183343769,-0.0028844371436789512,0.025220818065456112,0.049299544290546324,-0.0011657895222509978,-0.002947673393152945,0.0480381551857572,-0.014216363516688578,-0.035054195566324046,0.0021259129626560024,0.050933671131287696,0.046774852685094806,0.054813553905091246,0.029943165845656764,0.023546153718349522,-0.00298138757685374,0.023228929578897075,-0.023283828970754983,-0.004792540639312937,-0.028127857768710237,-0.03160365097036119,-0.01312081765672192,0.031317036598303816,0.02966707058432512,0.002020395630535495,0.010155022087111137,-0.002738570391094254,0.02582959304698743,-0.01030389478917932,0.01469536664719926,0.046420317326113576

Acceleration y :
-0.013733655750373145,0.015566514325386378,0.010572492872289148,-0.06066762739527039,-0.007689299835503333,-0.010021580991259542,0.025279110424220562,-0.006544019953385577,0.028645161924371495,0.0060170118210400685,-0.02498702757589053,0.026286250773305073,-0.019104625323659273,-0.0017615139394918514,-0.02612294997037388,-0.018928391973918768,0.002125825912276923,-0.023297113144013563,-0.03502327983825235,-0.027941192073212003,-0.01057656397591927,0.01686239250495564,-0.024480459443375,-0.011264369285211432,0.03499762480718782,0.03709912941437214,-0.013761291534325574,-0.04761765561820939,-0.06271328504581469,-0.05429442540181335,0.0008254423047681485,0.04467239137997385,0.018853200995991935,-0.01596631131491158,-0.02987649153432576,0.023462457490270025,-0.047013999769790094,0.021913769026834052,0.0004528245128218259,0.009239420491733472,-0.05020179035989567,-0.07109243830051273,0.002467943320624181,-0.010880371511372505,0.07424979265315923,0.0645575475058984,0.016219948149262926,0.003904240611514251,-0.020939469218137673,-0.03846102888472378,-0.022398444987949913,-0.030545979160571002,-0.03775461591472849,-0.032383179408917204,0.00911790843733761,0.02806512898013461,0.0028080208959901935,-0.023109262421715536,0.008232279571826802,0.016145362242823466,0.041563789806189015,0.002722742634300084,0.011793463201721897,0.032880598403885956,-0.012445899228466442,0.022688317612884566,-0.006705773828268866,0.03911983072017319,-0.005315868681206484,0.0116739364667912,0.007899095244839555,0.016529017523367655,-0.006613558650304913,0.04672902251568157,-0.018850099148385924,-0.012513057596987346,0.01311568710716674,0.009789015486044808,-0.007545381298943539,0.024062503459362776,-0.004958661303704139,0.029903642119443973,0.02447895932274405,0.028234649461298247,-0.0181233866008115,0.022847232218354472,0.021899288410332517,0.014761649374529952,0.029970953468303193,0.004915612179844174,0.015274099258560454,-0.010170062109327409,-0.016633005337516077,-0.010151076564355753,0.006816786750714527,-0.003871996865692199,-0.0025876284587036933,0.013312044221261749,0.03136988559697056,0.025202809768018777,0.020277262999338564,0.0321191947104875,0.0026496539943807874,-0.020185817289643453,0.0038253404312054043,0.023025888137333094,-0.0030645906145888146,0.027941109874821266,-0.02864561401552055,-0.011723489538318244,-0.028705634823779108,0.01389250071553979,-0.0021922199499284033,0.009199933868960942,0.02027191325407475,-0.016598781124217202,-0.01864315784983919,0.008579127097985475,0.020650053250929338,0.004516989942319923,-0.0009249845559508685,0.014354562986048404,-0.028873776198609265,0.00860322663866973,0.01854859659280628,0.011076133828778983,-0.006021572119259508,0.01997353081241017,-0.05350677302230615,-0.009295500914636068,0.018625586802174802,-0.004429125570843462,0.008024683540264959,-0.011489532368682557,-0.043476130800112145,-0.0022323553120833822,0.06851808516732416,-0.005222158520010998,-0.016524256866570795,0.032372331504628524,0.027602171660482417,0.9085168932471424,-0.10220255643315612,0.18340417295163497,-0.07143163452646695,-0.009628772006591315,0.022408279112086163,0.0011305177075868413,-0.009740760464104823,0.11138624470350332,-0.003462737071844458,-0.033247002297174186,-0.01204368880285765,-0.03609932755494956,0.07838343555890023,-0.024078831256367266,0.0249153711287654,0.08291033839881419,0.0611676310729701,0.04083223782835994,0.0031808899210387606,-0.003143697717929899,0.06405348414101172,0.07785047945966944,0.004811339525438961,-0.020363352113903964,-0.2861961466453038,-0.4898966366399079,0.04566397796689998,0.03124948550413828,-0.04577170352453831,-0.15293972317823207,-0.10151430017435922,-0.194545068837516,-0.2219064288958907,-0.23861480444949118,-0.04130269118458964,0.4662371267741546,0.24075406323419882,0.4865382295900956,0.37426863531395793,0.19752280600667,-0.06954127703548875,-0.08975118987006135,-0.1495191010797862,0.2432509946164675,0.6249231659188866,-0.593822655864805,-0.2591172750564292,-0.2859899748150259,-0.15226469172718934,-0.027955469477025326,-0.23551966971205546,0.06522912205795292,-0.2061363936383277,-0.05655300885040778,-0.15923857672726735,0.08782778405942954,-0.061552725966996506,0.06292108257759828,0.14640864090905523,0.20357901903940365,-0.06247517000758089,0.20780184263251722,0.14534380642282776,-0.3119833709884435,-0.33279337317459284,0.17581768161170183,0.18012869494492187,0.18714374307245016,0.1128335209023673,-0.09694067211588844,-0.2741270847975276,-0.20804385296115652,-0.115377597628301,0.1057211498802062,0.29637212475547564,0.29543332780171183,0.17450955815520136,-0.07629432235911954,0.2781183646570891,0.46956572320759293,0.2579868645207025,0.04608686585435644,0.10259601273015141,-0.2593835430434905,-0.5771793449040502,-0.36990919799543914,-0.1875836323270574,-0.22330891610495746,-0.3113336018428206,-0.03428061509465333,0.003323413368244655,0.08261716413851827,-0.13083165313871575,-0.30260672656241805,-0.11058591550551354,-0.45372901592198756,0.15048664920399896,0.16396845479337496,0.12439710831288248,0.048284832556359465,-0.8269834692247211,0.09943729297090322,-0.36589634562488643,-0.4307959936998784,-0.1675061639328487,0.4552538143364712,-0.08517362542198971,0.04380799766955897,0.059466046752897087,-0.2755264850003645,-0.33978757944349197,-0.250130616328679,0.1724267057328485,0.24629571434091777,0.15662795583745465,0.348998767642118,0.5729610696218908,0.47158152000941334,0.2824007364177145,-0.06279168404426891,-0.10498706345199607,-0.1530954799955245,0.09233010044735855,-0.09253904875661247,0.05169201521791983,0.1735525131586939,-0.278759840898402,0.11277890463829972,-0.19905350443897768,0.04183064231513999,-0.3112077835060656,-0.1463950051093474,-0.2414739202076569,0.11014006230100057,-0.2961394302444532,-0.18609293711157515,-0.4150932149922475,-0.21355280737467108,0.014470509524404769,-0.03245333345212275,-0.04618627110822126,-0.013273133558046537,0.05348261582858394,0.2993552139531821,0.21277937531676142,-0.08093582345545292,-0.20068777284361422,-0.056981079803057944,0.1353319328331854,-0.11355573422969319,-0.15284141390291042,-0.4807781316934153,-0.36451066342014815,-0.19928965128241105,-0.12940010423194617,0.06728022306859494,0.08999314539977349,-0.1298668175613973,-0.0956457278013695,-0.09727891849377192,-0.1568250310458243,-0.1350396262225695,-0.11377445501429029,-0.029085064878710543,-0.0023551472924627885,-0.02833856192692183,-0.19323113669473677,0.05396009714722167,-0.05643642413287889,-0.011125513370370026,-0.07805645036054774,-0.05965756900331471,0.0400479875489138,0.03891567731704563,-0.0030838761266044454,-0.1557957245307043,-0.12052402060604654,-0.08638573202495463,0.011589909161860123,0.03722578115147771,0.07623622636317741,-0.016070899633970112,-0.11477645339737645,-0.05915695797083899,-0.027512694145587737,0.023179731558752244,0.005881322256708518,0.0057261813565244665,-0.09097128798323682,-0.0847067933615297,0.02331839796063723,0.05640927126447204,0.03171056367724668,0.011346218332787974,-0.03749442375871585,-0.040919057595287446,-0.03767014793509151,0.015145198482152773,0.036809211123664864,-0.013890306475164834,-0.014803430131555068,0.022868384604237506,-0.04051548632965423,-0.03528639003713615,-0.012385484552918933,0.04963086773729883,0.03601423395422753,0.06924276444637216,-0.028678463689063207,-0.020589105427486355,-0.04615261086721439,-0.01688967209588154,0.0075299685298581606,0.050744687897828405,0.050744687897828405,-0.009810423600254579,-0.0007303913536765321,0.01465588630347047,-0.012513872731028823,-0.009157027450640452,-0.0005831108173122629,-0.013667184651730349,-0.02060781697782222,0.03142846793339122,0.005752467716895626,-0.010741545279283308,-0.05659287506991531,-0.03295667986437911,0.00905987694429932,-0.05408405232045334,-0.05092142813764512,0.028437684052996334,-0.03800265184206655,-0.026867763288575222,-0.015271245147770968,-0.017187828491971594,0.1002543997737579,0.14386367826713248,0.008371613835636525,0.009906232674524652,-0.012529389960569097,0.01138417001477792,0.001108176156443369,0.05703643585264217,-0.026956539833860003,-0.05547008615164086,-0.03352797694631154,0.0036947340381899263,0.04928303611373994,0.0032848414879801564,0.00033808355086293885,-0.0753870895873988,-0.17121342095294967,0.01957324976569507,0.1321363973280415,0.03769603357830783,0.033875922734302004,-0.012691835671907755,0.01904395720307366,0.021357635264704,0.028831261364289092,0.02790265929426532,0.02175239303621929,0.008825286162068369,0.0029185480487794848,-0.004012580659205559,-0.028822712731652426,-0.049290338070783764,0.009629934200504795,0.025382255704863927,0.005607416669174563,0.009724118714913492,-0.002859777626457799,0.0018866482885961885,-0.00201576084002445,-0.020109512066864406,-0.03198227730769431,-0.011275732071086531,-0.018974694784078747,-0.007712125871953321,-0.045267946120328265,-0.02624260342782363,-0.09566842369036749,-0.02295289596635848,0.058482785036321726,0.12762586110103874,0.17749354240205137,-0.029541745437914504,0.036416321082250215,0.02304444442404201,0.015630179262300953,-0.019935011733195278,-0.007689776472005178,-0.006056892881923704,0.00819247385946801,0.012376270341646158,-0.017814172237878664,-0.014678214582998771,0.0035042426925894687,0.0552133257784415,0.0007349596434061823,-0.05045203879391774,-0.01678052975764731,-0.02000704263965599,-0.0027629059667408,0.03385857202399056,0.011980561580415815,-0.026546609609387813,0.023871239220560527,-0.03172649189874064,0.02385333138782298,0.0664410094652092,0.03708713073261315,-0.01936408454402117,-0.01796195581126958,-0.01293859181596781,-0.0005826538028220966,0.04267508008291479,-0.0010298500805198273,-0.04352945015623699,0.003908238935319241,0.010276888051244895,0.024676301675883586,-0.019964662519365083,0.02469583292683819,-0.012933396192686632,-0.0032863341879230575,0.032902572773676364,0.042785056963143865,-0.010644594560697442,-0.030731756656791547,0.016327848378481575,-0.02883261992102489,-0.009911033288872568,0.01652427399123553,0.04865673460867256,0.040575988911814055,-0.010472987153724534,-0.007398291274474468,0.016190725479711544,0.024073668740771242,-0.015560803820518776,-0.011979774987482232,-0.006733903373387875,0.034661294108466245,0.04774185738661326,0.04066139303978998,-0.022528350411355494,-0.03626669489493361,-0.012522439629974541,0.06032915268852375,0.0654294030035613,0.060714658574503845,0.002421536050009308,-0.04512605799818411,-0.051184791781567034,0.012166856241511413,0.03347368719251826

Acceleration z :
-0.055195214733015745,-0.105954666375136,-0.060043271252117114,-0.04373525666033383,-0.023993769621686076,-0.094008874714002,-0.04792292674167547,-0.031006500211253295,-0.047949490521615366,-0.057700105659454125,-0.0626408728301525,-0.06987341789957136,-0.04371029574901331,-0.04594351642748806,-0.06061636299891397,-0.06767937845401466,-0.07022914970179554,-0.04390702846408821,-0.046483007298782464,-0.04388361562245991,-0.031395239233935716,-0.0386612687311368,-0.07227396253554616,-0.05753769990566652,-0.05717333270583767,-0.040300578637071885,-0.053092123240232464,-0.05825758427858818,-0.017641682339849647,-0.015019988641818053,-0.060563765161996706,-0.06013785876696929,-0.07708990688333288,-0.0579587611622177,-0.09467613385054283,-0.07046194011094048,-0.000915921041727779,-0.06287572733222041,-0.05791816885692533,-0.036649830727314106,-0.025100363173696676,-0.05876837421178352,-0.04123983681513928,-0.0051901770669705,-0.06253970031088683,-0.06510946860050316,-0.1094457872933708,-0.07755961588746868,-0.06556936859667767,-0.024848781299113762,-0.026582957281114067,-0.046135111743141895,-0.019793475237500385,-0.024760196550074033,-0.11620168216121382,-0.0726552717370214,-0.07297084049221593,-0.07055944110208656,-0.02896429945969721,-0.07262283077214378,-0.04569551931605674,-0.03675001229931368,-0.017342742775758962,-0.06782278267981018,-0.053795417237957006,-0.053204429074865764,-0.06114531420988496,-0.012556973228882997,-0.08243623634735121,-0.03427026038070908,-0.034356283279904164,0.014579106156656052,-0.022148637228633743,-0.04360675774272531,-0.019879340589779894,-0.048850896340748295,-0.010373911835066973,-0.08084728665547444,-0.07617219838337042,-0.07565252189082093,-0.023349669881735462,-0.045046878115017897,-0.08823229147340171,-0.06187669265777804,-0.07221960656638257,-0.02596649218347156,-0.006465412604843732,0.024965612611814868,-0.03553469082595547,-0.052794976057717574,-0.05001104899419006,-0.06726877465939615,-0.033371459793904795,-0.04325069258036092,-0.06240020050865132,-0.023794180512533056,-0.04769017286514863,-0.05779105361222755,-0.06213594181558583,-0.07931824132413604,-0.05014042926121037,-0.03784303170040948,-0.03608311620566528,-0.045720324963750315,-0.04969975912189111,-0.03319007534501143,-0.059833637956273736,-0.07912934028906747,-0.043060622501512984,-0.04576609120108187,-0.03344679461901542,-0.052969159014266916,-0.08397440570006147,-0.04789861428432632,-0.04821397754354402,-0.06003414723074529,-0.041054264814895575,-0.05271060397620313,-0.02844263878932688,-0.05538818458842579,-0.05504958658409305,-0.059705641362164164,-0.031107700129982548,-0.05057335448549129,-0.04325586194582283,-0.0867356597074773,-0.04088446120594162,-0.059706577510503116,-0.026617987495299894,-0.047540220167557705,-0.06697434459035284,0.0031018864219193344,-0.06450542002643923,-0.05238899820586666,-0.04069435916105285,-0.04720396481736097,-0.03749973697136156,-0.04502496767730917,-0.054462731173424976,-0.0734742736694403,-0.036641243278770705,0.3885959974825382,-0.2762444788102992,0.030562211059452966,-0.06494454209606629,-0.021368289089458994,0.02009985375595279,-0.047698178075090976,-0.09156209348323754,-0.04685421066477429,-0.06230993754246737,0.02175736832214752,-0.05053912342232652,-0.058035082368017174,-0.025847055638441814,-0.06977119506753515,-0.11044611430917865,-0.06929683728774544,-0.08584464741819538,-0.08338670547259971,-0.09118430967940948,-0.09331745838373899,-0.04610590848154388,-0.15211327315829692,-0.19748831921517848,-0.18260569778401403,-0.09760176637312397,-0.8803099857427179,-0.7538508668661117,-0.22507574311438946,-0.27724644066076726,-0.4305392789924517,-0.6020651451617479,-0.5187454222444444,-0.7216302667409181,-0.970452540417388,-0.9714777187466621,-0.11354256422086619,-0.9708621441315859,0.07309428877537139,-1.0632095153741539,-0.7875874245122074,-0.44991343968920405,-0.5126851723574102,-0.5845561572823673,-0.599397971779108,-0.41765711066350336,-0.17618795796250925,-0.24401512912306933,-0.5449227601500227,-0.6816827256254852,-1.0063184382423758,-0.10704197755465283,-0.3286689867209643,-0.5297543075148016,-0.6764615569110959,-1.27064712780416,-0.06637818706179968,-0.8146408511325717,-0.8827914272949099,-0.8660501358523964,-0.896076586934179,-0.912320011857152,-0.7134983982115983,-0.3357486062509939,-0.6073811525527387,0.13279781124568543,-0.3392153325134888,-0.35819841153342274,-0.3598958265684545,-0.3628548955697566,-0.004775306091310631,-0.24705237792711704,-0.6146574271660298,-0.6990799236934632,0.13401885920693166,-0.23942301555983722,0.16458388327797874,0.23793418350787832,0.2929720705210231,-0.11763115784190595,-0.47865452713556583,-0.9754538558360188,-1.0055413163900375,-1.125196965796873,-0.9330690045710652,-0.8088637290358542,-0.8898240293454378,-1.460775147384405,-0.6149622553315013,-0.35263054827321316,0.29008829524563623,-0.040642263647634534,-0.46697271103970706,-1.0978402453809977,-1.0161342412706464,-1.81754158988595,-1.346418408103287,-0.9913102542027831,-1.0335060857016594,-0.38607089945171025,-1.1335541675146668,-1.0405741243917495,0.0628490904870443,-0.30064929061802104,0.2712732297363691,0.15007243324676528,-0.37712347675580526,0.6780101745925843,1.5768201320134103,1.6195333384498953,2.0026840761385856,1.4345399052791297,1.6208051119513809,1.3521494991011918,2.3779373385757205,1.4838893348596989,0.6456176519665867,0.39372203525938093,0.19130977671071886,1.3349918819427489,1.0177779898896813,0.5433186859542504,0.5412674890454858,0.20080907940203324,0.3157237265605479,0.6640614364780485,0.4867753628142178,0.5913584942409769,-0.45483631957676257,1.2223765064362435,0.82973415617235,0.7053606113981455,1.0802566578954458,0.42007692168895155,1.1471554804310202,1.51736431896016,0.6963966759588569,0.7636730996351688,0.4913321858683601,1.3657882944837212,1.3662583962135015,0.8227394019141793,0.8354265225950628,0.4895203872060403,0.17705047480966896,0.8890135897453874,0.6468138760138302,0.6200368551820516,0.37111342268604786,0.1248345955478493,0.6323161987796425,0.6080712902413681,0.20510325119830666,0.4023881567958742,-0.00005664224569241014,0.019423619011801202,-0.09772106363754719,-0.0203109711894067,-0.1676844431092031,-0.14797215476557612,-0.21101910591227932,-0.07792337116594426,0.18128345447061583,-0.2125453656314872,-0.3133021985020488,-0.20087032633628696,-0.011530728603817987,0.33302027726564554,0.1448950854077935,-0.1902049207413569,-0.11918635139465332,-0.027968733100686222,0.054928403323260135,-0.009950536465487676,-0.03670258382785832,-0.2134846375092864,-0.2019801690080203,-0.0582681604715297,0.08229119272031821,0.13380011102287098,0.060679094070778226,0.05828099255363922,0.08421265316903591,0.257293201434426,0.19859651791909708,-0.10245495115849189,-0.1808907105596736,-0.2505694826699793,-0.028867106712516397,-0.02804449490077095,-0.07719365038559772,-0.3634347412843257,-0.5876031237628311,-0.42240083459187294,-0.11118972661755978,-0.16521489292420447,0.10713452380946836,0.03789495825046906,0.22801974241072312,0.216550966277346,0.18033769805310293,0.04689483950268477,0.11669985920800827,-0.0997464319853112,-0.20444946346469223,-0.2215215942967683,-0.04035452361428179,0.024469410609686746,-0.1981153468060307,-0.32454401574544606,-0.25852583023561165,0.15793394213579595,0.16595436791358514,0.008888692516545416,-0.23764321947097777,-0.23764321947097777,0.17163546402361243,0.20552200633333995,0.10373143736771308,0.011081163913634373,-0.0911805376865901,-0.0699012283551041,0.04317625737097114,0.010085866982681909,-0.1301539456733968,0.06941324390876107,-0.1199477642212063,-0.10300611876784824,0.09962669632947072,0.10705650840350427,-0.10809831820717081,-0.08108166166692972,0.1259542198280804,0.09860034895641728,-0.11723197505702264,-0.06805070511759258,-0.12657121921526268,-0.10585268557169474,-0.14501916844518856,-0.2904258749032393,-0.2255096592859365,-0.17720466072438285,-0.22964608323723076,-0.01855800145867979,-0.0517890960839577,0.016048564504575914,0.07176138250406365,0.09848511594575829,-0.0152467146363575,0.04524981224201619,-0.03761886070584878,-0.011492429861956043,0.16911520656468346,0.05707472203641664,0.09465784014202654,-0.16134161342112346,-0.11114131176541558,-0.2803299214930273,-0.27544235038086773,-0.3327093846855685,-0.052088375858054495,-0.009737717982003232,0.022029125335079152,0.010046283890964696,-0.04547178899620194,-0.004288554620828654,0.05382912314473651,-0.026541077201033474,-0.1700211241621524,0.05314976257844828,0.0915937215973623,0.09128336787340231,-0.12905291649578138,-0.21663170336335896,0.03843462950156536,0.07288043139555957,-0.0813740596090909,-0.05224822889515199,-0.10718355058296583,-0.17438184012230484,-0.0866888340242207,0.06422296352297999,0.09883866949062795,-0.041716121690534055,-0.0464665219548624,-0.04839466330611612,-0.0409658284796169,-0.06737544990426395,-0.029608988288114778,-0.23322089125039056,-0.07339159122151322,-0.14112490095300598,-0.16762580825714393,-0.06600547215873376,0.07701940806354396,-0.04068588816022966,0.012349686012108577,0.024192102922091726,0.021786772513145113,0.002260003083301126,-0.08219708469607867,-0.1480425439875107,-0.005127750243316404,-0.10126036194590851,0.048898457242944275,0.15256334588020107,-0.1666727270497009,-0.16860698304791003,-0.19798861515382304,-0.12241675728377885,-0.08169447806933894,0.06867608874063007,0.020863938030204733,-0.02518477407111786,-0.07570456717188935,-0.000684291756204766,0.038247297085786704,-0.051709870535018854,-0.07836201831153594,-0.10738200489766896,-0.1148248865158297,-0.0950260250004474,-0.0372137527869665,0.05065328328732867,0.055295916894823306,-0.007263453376802499,-0.08732485777228138,0.009487615678453585,-0.02208744737659581,-0.053216210844204755,-0.0973766432472039,-0.10965998716647736,-0.07031833952232264,-0.01243831528527662,-0.022643560589128173,0.011876868310500867,-0.043687471995851955,-0.15760648201340807,-0.03507890074931783,-0.11246702567753382,-0.07853114606705494,-0.0683908329253085,-0.0032003689417659186,-0.005343551843398017,-0.10000019668382593,0.009696790033282013,-0.043765510234702376,-0.08700808344068936,-0.1427839750053361,0.019003804430842864,0.20008122178521007,0.10367725949506275,-0.03657366021856433,-0.010171178637468255,-0.16031336635192855,-0.17782270129118113,-0.015585499870358035,-0.0808368748593144,-0.15114124978836624

Rotation alpha :
5.94550871501982,5.945440979953819,5.945371922888546,5.94533456635113,5.94536872575482,5.945534426666809,5.945606491668678,5.945685321311308,5.945713547890026,5.945755052546639,5.945758090579894,5.9456184761974695,5.945555467393208,5.945637409847211,5.945809972385031,5.945749810632222,5.945756816236571,5.945692975060518,5.945775199515873,5.946001236398625,5.946354147648399,5.946762288612563,5.94719646082674,5.947607295297662,5.947981902388354,5.947763581696057,5.947263125296157,5.946735540484026,5.946538228044426,5.946478024048468,5.946658551351463,5.946874952776778,5.9470970847904265,5.9472429246612,5.947193977707927,5.94707373263628,5.946931837854155,5.946841396627585,5.946621439808299,5.946285264723277,5.945969036863716,5.946125939294609,5.946389221055412,5.946520945415873,5.946386559314169,5.946049207644462,5.945643697013173,5.945324512860099,5.94500479172001,5.944647252710733,5.9443832462701485,5.9441794168924185,5.944081871983635,5.944493574802699,5.944838255233453,5.94519979234616,5.945348053116581,5.945418896648515,5.945426941968181,5.945386626010658,5.945224277126714,5.945140864056112,5.94504904386546,5.944996451243678,5.944870702243703,5.944851749939197,5.944845617217879,5.944825683809435,5.944831865391849,5.94485054531298,5.944815804512221,5.9447640730852775,5.944359638251223,5.943783125096891,5.9432946413538605,5.942681474437416,5.942236148217204,5.941828635485822,5.94168181567582,5.941450949698497,5.941230711813158,5.940877965074484,5.940523521552226,5.939713025346058,5.939511130804293,5.939406878961188,5.9393253171896285,5.93933412052226,5.9390247149769175,5.9389011775123235,5.938718769205462,5.938678579089435,5.938546671681456,5.938601131666639,5.938660424781754,5.938722609168579,5.938827080281502,5.938926452973395,5.939000917131709,5.939072277009176,5.939067142496376,5.939010174591168,5.938917366242537,5.938766929435442,5.938895772411363,5.939070618779088,5.939066163440061,5.939092453184255,5.939098259437848,5.939186840407139,5.939358697108341,5.939426350972683,5.93939590353827,5.939461963299864,5.939483203290999,5.939455656511931,5.9394056518226765,5.939404193386938,5.939460204782636,5.939509707999031,5.939552273084009,5.939476663403043,5.939504407426081,5.939545144575502,5.939500778283527,5.9393965255679255,5.939337927811171,5.93936774420365,5.939364751192162,5.939399658878965,5.939510853171449,5.939540139580116,5.939453638223423,5.939400667184704,5.939392813219952,5.939440800387509,5.9393905491432495,5.939328417175352,5.9393492007994055,5.939342367818038,5.939194558939754,5.94209262314727,5.942103459744099,5.942435675041785,5.942360484232696,5.942495483728543,5.942386702403495,5.942241883581687,5.942215208673941,5.94211166607239,5.941904816077726,5.941857800150179,5.9419603218514165,5.9421369052792326,5.942355393621788,5.942860342626573,5.943022447511675,5.94297697437996,5.942752840559871,5.942344562045495,5.941796132003325,5.941173964042516,5.940432562230564,5.939401002364122,5.938403956452687,5.937404456926528,5.936665801710065,5.936757076668371,5.935500723468315,5.92942412398617,5.926245712053061,5.923977754195334,5.922707971610052,5.921481302247205,5.920169117209122,5.918291279560825,5.915204701692266,5.912770647455607,5.911178634170357,5.90786712870939,5.9042010262317115,5.900753096883813,5.896991485801501,5.892544784877068,5.881558936384166,5.880756448776688,5.880642060141854,5.879315061927716,5.87833362743038,5.877668085863021,5.87707705466655,5.877734114039137,5.878264217092045,5.87862784272616,5.879039026594828,5.8800415753246495,5.880544997945095,5.879516080812198,5.879701082916646,5.880028587994802,5.8797591909197875,5.879595440128559,5.879414390905574,5.879195608325713,5.879135003075682,5.87933013694694,5.8791936269711025,5.8790807613084715,5.879395525966492,5.879516873720257,5.879661665570304,5.879682808177365,5.878841836265675,5.878961436048679,5.878783103457423,5.879073614060159,5.878808633128631,5.879139547580939,5.879208801732857,5.87895651115979,5.87847002704627,5.878379977944489,5.878889836495776,5.878811109469902,5.878840002383375,5.878282495791595,5.878023856798907,5.877396151557308,5.877291172108439,5.877177392692358,5.877200408394875,5.8773227201247,5.877018568445271,5.876502628768219,5.876430317380553,5.875777829124633,5.875528985309795,5.875652502758022,5.875649603751,5.875629278430668,5.875245462472014,5.873810163175314,5.873072679204438,5.873923527127436,5.874346618527322,5.875186366839893,5.875236955933339,5.875830671805557,5.875377048761139,5.875032090849792,5.874976706016639,5.875885638235147,5.877189474480454,5.87681009091301,5.8763340679254235,5.87586204736555,5.875926248608427,5.875282778127041,5.873769571554344,5.87262561814866,5.872141449168467,5.872663845333476,5.87249430802294,5.872560118631135,5.871980932618158,5.8721869490955365,5.872048174942477,5.871622418550903,5.871770371234283,5.871331543383822,5.8703822515742745,5.870046523507842,5.870267537498785,5.869963685805891,5.870296320944549,5.869713978460765,5.869859497031881,5.869482923564969,5.869849671469542,5.870171543624906,5.870257744185191,5.870292745873785,5.870493925138566,5.870680576461564,5.871148144867173,5.8718922359082635,5.871791666893537,5.8717357827183445,5.871752144215852,5.87207971513777,5.872142171527322,5.872006545525902,5.871728712245572,5.871437340128296,5.871209583878771,5.871473309942223,5.871855566570419,5.872099880871271,5.872248910257061,5.872462725329634,5.872613751966876,5.8726443786515805,5.872545198192419,5.872529267276732,5.872681538652435,5.872993401807838,5.873038163358924,5.872952732380419,5.872808736376558,5.872933163821549,5.872985483051347,5.873039699621748,5.872942698184031,5.87330015931501,5.873280525263812,5.873064481509328,5.872961118095157,5.872836459714231,5.872870199039199,5.87301345501637,5.873112266149713,5.872836649699892,5.872641313180394,5.872469781748844,5.872291972129678,5.8723210262204635,5.872421094968957,5.872573490816389,5.8725559889135805,5.8724851901896375,5.8724265939550975,5.872500677635089,5.87271369382398,5.872837038760736,5.87293947271689,5.873127159145586,5.873181818930462,5.873154887971749,5.873183145391879,5.873164372747983,5.873182184931012,5.873175381441037,5.873044481138753,5.87308417679039,5.873127958742969,5.87316662277129,5.873222421048821,5.8732399330592076,5.873233447250045,5.873200466229962,5.872986086181972,5.872982777055712,5.872998740938798,5.873068555012521,5.873242077092938,5.873305276059283,5.873305276059283,5.87341017966125,5.873411363395313,5.87354459875946,5.873544744230371,5.873578726986999,5.873581410607671,5.873549862615373,5.873570973589404,5.873616358045637,5.873612207732071,5.873546606859145,5.873412316129635,5.873520129621588,5.873662276179133,5.873647358304539,5.873568995837531,5.87355885271508,5.873262158358432,5.873272317072656,5.873259487899994,5.873215281183094,5.8731579814971235,5.873046335989031,5.87277990367161,5.872642007183964,5.872594891518122,5.872677751775076,5.872638203593221,5.872635176215345,5.872562827652721,5.8725665616559395,5.8727350829810945,5.872737259490819,5.87275705727446,5.872676846718068,5.87236038630845,5.872081233491895,5.871992223112958,5.871991053494818,5.871804536679613,5.871534389683388,5.871499672192295,5.871495892104997,5.871657448554773,5.871710725080599,5.871795427283716,5.871868188207699,5.871988561349723,5.87198808740391,5.871954228084611,5.871845854402828,5.871847843009843,5.87175690053799,5.871853106053022,5.8716309487463905,5.8713213588080055,5.87119857646899,5.871136243091883,5.871148501916626,5.871184175130692,5.871227875934915,5.871274078773061,5.871251223871443,5.8712144228771574,5.871147939644645,5.8711726266380655,5.871247126108696,5.871264306084056,5.871270576947186,5.8713050081552325,5.8711890657276005,5.87112428523242,5.871103065501189,5.870988968172162,5.870997560139154,5.870977203477914,5.871041111482316,5.871176993627414,5.871241717296554,5.871240525194277,5.871297680218612,5.871349257313965,5.871431196859816,5.871204044841576,5.871103618118154,5.871050934215787,5.871039295816209,5.871081369989359,5.871128512488358,5.871020784420766,5.8709157751280525,5.870990907048862,5.870998520763324,5.870990425817794,5.871011601743912,5.871084895424606,5.8711166473854055,5.871126849623579,5.871113715185365,5.871172559207461,5.8712835214094445,5.871223852823506,5.871270380900532,5.871375924106504,5.871346209978291,5.8713145888658165,5.871319880828892,5.871296139831874,5.871371468242093,5.871373101766624,5.871380695436507,5.8712613359132355,5.87120445755173,5.871097917971225,5.870843150991598,5.870846814946804,5.870881150255768,5.870974871775693,5.871004954525549,5.870810338400583,5.870344590817999,5.870028638026649,5.870001888744073,5.870063911566773,5.870195759312166,5.8703516555952975,5.870495802671469,5.870500194854924,5.870481460526781,5.870378797958279,5.870479570515196,5.870459033713529,5.870458406987253,5.870383064222039,5.870527137677843,5.870641295320834,5.870772521094574,5.87068373187044,5.8705551237119264,5.87036366685581,5.87027467321185,5.870232158754466,5.870122059067754

Rotation beta :
0.002933057162884251,0.002930120370962466,0.002954929614263102,0.0030757136490659562,0.003091646964629816,0.003067443398232078,0.0029897435547774583,0.0029185152710696012,0.0028447035607183195,0.002749798372574728,0.0027468354750951225,0.0028330431913020804,0.002904169330246439,0.0029484315993159194,0.0029514391754928227,0.0031357643163643224,0.0033295730413329025,0.0034684788290340334,0.0035544814596055554,0.0034831959490569595,0.003285510260041198,0.0029096751921451535,0.0025696085753537856,0.002177771723073699,0.001997110603422408,0.002440287387985674,0.002960756804839556,0.003460397338624102,0.003935235068420979,0.004030781177231762,0.003959914460761518,0.0037160913894417305,0.003539930521492489,0.003437814082774739,0.0035299912186257812,0.0035826979860632017,0.0038118726327508396,0.0038672825380395,0.004089765751423744,0.004329623380390493,0.004951663042137414,0.004972899255869569,0.004859833599977576,0.004734644791493234,0.004763772382873626,0.00478251883039794,0.005056705943085588,0.005219922787268241,0.005402636412691075,0.0056300982380699475,0.005681112761090703,0.005643751829333535,0.005702133468881349,0.0052885575376753965,0.005003885495603539,0.0047539544360075325,0.004665627835984901,0.004693088911074773,0.004669431938075101,0.0047439207214163845,0.004879215717990549,0.004931593127647525,0.005093611851831163,0.005214483827519128,0.005307434491477822,0.005380607168038335,0.005389225531862356,0.005423465526171503,0.005469922418444494,0.005310308261723283,0.005200038211600846,0.005042445676047752,0.004940859196503807,0.0049023828038891985,0.00468489761213391,0.004552896403901684,0.004496012348668372,0.004400925948514064,0.004357552160786098,0.00434579599389945,0.004422960558953439,0.004514182005061472,0.004632406279787615,0.004557615574231495,0.004789520423514061,0.005030596120297639,0.005162816306975602,0.005213178631548012,0.005253476484908778,0.005414609487754136,0.005463801830882604,0.005585285818468575,0.0056281539555123085,0.00558722176169143,0.005577960204609507,0.005495086441160442,0.005366654261451256,0.005309502001167893,0.005121467841208721,0.005041916564475279,0.004982154649979906,0.0049689923502065185,0.004939399060519311,0.005036977659590381,0.004967733330608123,0.00480467072876911,0.004814470451357232,0.004787084835175382,0.004891479788008868,0.004923331082947386,0.0049311361881553845,0.004865146285606935,0.004903428553417934,0.004859660101786222,0.004798501444591364,0.0049144708791373296,0.004980661469663923,0.005025239287248575,0.005004910272818105,0.004900932016495787,0.004788508626300808,0.004835969307214169,0.004898731325578522,0.004844589071432497,0.004851654523136327,0.004806838006452323,0.0045587158068202205,0.004447636715054156,0.00441627870088561,0.004392712986113858,0.004325442193892191,0.004217556832243297,0.004205753589851356,0.0041842409706417906,0.004172637447588169,0.004121129660703078,0.003782563676101415,0.0036026276598449722,0.00342669577484654,0.0030264055985300808,0.0024942062303034327,0.0010444319452005088,0.0009918137859561444,-0.0000662895854639928,-0.000264956563186561,-0.00029521602373041347,-0.00024795036251876575,0.000023727990253513197,0.00016638681858768673,0.00017354315935332423,0.000272509433955718,0.00028711743742532115,0.00016043532406765406,-0.00004951505029219406,-0.00044522407053930305,-0.0005937852445498847,-0.0005263558939029279,-0.00045663140130426064,-0.00003399970489838621,0.00033377341784576704,0.0007210890717118554,0.0005797006307933898,-0.0002585235862826887,-0.0013235453437223917,-0.001981305035269419,-0.0028241684018804085,-0.0018248767460433996,0.0015733775141322864,0.0029474497187885478,-0.0014978881642481734,-0.004087592050467882,-0.006638650996441546,-0.00868847921470868,-0.010850862380962528,-0.012664506976416816,-0.014429484716690137,-0.016449993221635272,-0.01829974053459133,-0.020464774875911477,-0.02067036065041026,-0.01945363670182676,-0.017090556685471502,-0.01322565571657318,-0.008877532552634581,-0.002780277963764339,0.001992810855860792,0.009296464944737681,0.01629092516767139,0.021323757610315255,0.024993182980844166,0.028819353165675018,0.034463896878479894,0.03951629989062355,0.04236976158358763,0.04448533041426454,0.04625163991215737,0.048295115586234214,0.046081623531246355,0.045557974258348774,0.045051397771776865,0.043935359614922315,0.04228677586358205,0.041340054303423655,0.040747674142822085,0.04072636592279229,0.04115043407350779,0.04117991950988929,0.04069049594507727,0.04058069088162733,0.042380949668873964,0.045197351015252255,0.04764320076841373,0.04817629013392728,0.049041291644242826,0.04977875221335793,0.04984843997519864,0.049437237226275146,0.04885252060004424,0.04710932042298476,0.0452446122510356,0.04293025163602181,0.04253937279979479,0.04289153353336524,0.043394200256056205,0.042823602343705115,0.038898182059921314,0.036931898849488415,0.026217089545609362,0.02155339268068238,0.017879194823436126,0.014624790645488796,0.009443943588675346,0.004260415516503469,-0.0007459264816721549,-0.0046588818418619735,-0.008106533294296758,-0.011582059644332026,-0.014270285970507836,-0.01770609508244377,-0.021672679960883425,-0.0253579041031429,-0.02649726455763003,-0.025722675125531676,-0.023691169225424268,-0.023275057487371707,-0.024766458290720373,-0.025567546583471233,-0.02526551074220456,-0.02232850585482861,-0.02008556969362802,-0.01940428734923851,-0.017446132594421706,-0.014889107814334555,-0.012460281967828687,-0.009013559840762013,-0.005463466237436423,-0.00713025987524375,-0.010173315241781992,-0.010483114561867565,-0.008201832011745055,-0.007091870440043209,-0.008356192089483091,-0.011362073526121,-0.014192803686701153,-0.01463332396391364,-0.01450278308528503,-0.015542495552342625,-0.018283811956929227,-0.01988198163768219,-0.01747708239211502,-0.014240551337383963,-0.014884791371215128,-0.01697992742273226,-0.018820238016720465,-0.018887304469320184,-0.01861610585416268,-0.020128375511888858,-0.022106050736906736,-0.02420264987365713,-0.023121160361671843,-0.020956372439411664,-0.018523390953675577,-0.016032397195638863,-0.015254831446763241,-0.015253059027622407,-0.01389304536047626,-0.012268914180947449,-0.01186976921163714,-0.012118196408554039,-0.01235678816183386,-0.013422066387220242,-0.014372315332919827,-0.015051997196071901,-0.016220040427802115,-0.016800048480438312,-0.015256562962072118,-0.015042019407388113,-0.014990473875845827,-0.014154413983542018,-0.012678494735079801,-0.012606877298127135,-0.01149159705380661,-0.010620809265618283,-0.010306646603159674,-0.00952671450168181,-0.009573053029689835,-0.009578683562214271,-0.00946640860502475,-0.008855209644815981,-0.008993572363058476,-0.008699969858711236,-0.008748734009577106,-0.008600517764953245,-0.008006071883648073,-0.00790973246257791,-0.008040459086944899,-0.00821861309115758,-0.00805907019034126,-0.00772772898753896,-0.007374634239607395,-0.007469961096585361,-0.007480341655519204,-0.00766803791578349,-0.007742368670264069,-0.0074162893848016545,-0.008107615164897126,-0.009077001063245969,-0.010026629995062,-0.010997173375287854,-0.0109672152049108,-0.010695760814145729,-0.010575752548890717,-0.011050144434221736,-0.01200937407251639,-0.012529079404899347,-0.012576249412853447,-0.012261784739342578,-0.011313937418145948,-0.01057060887023372,-0.010327140990786672,-0.010361070281917798,-0.01037351234315312,-0.01000884239694404,-0.009325923786503482,-0.008938067516504207,-0.008648977464473523,-0.008541514215834404,-0.0080159279518409,-0.007130853168310709,-0.006061798934367371,-0.005014864662749686,-0.004708774757987506,-0.004477389729953552,-0.00449938209386846,-0.004511713221238911,-0.005048892186660925,-0.005048892186660925,-0.005455978220754101,-0.005491376903921581,-0.005448291516371279,-0.005289146122337166,-0.004946838658489277,-0.0045608193410126285,-0.0036367149601503617,-0.0020556374742632267,-0.0007166969117731578,0.00018985991694037613,0.0007204631421244359,0.0016143873260996008,0.0026818376388666786,0.003060085605505608,0.0019007342216955036,0.0012619277033724108,0.0009314531032725836,0.0003209750235564577,-0.0007255892370683393,-0.001587751855565006,-0.0024088010367713845,-0.0030520475958213714,-0.003472694308287555,-0.003876567278859518,-0.003918444274855631,-0.003947940582032126,-0.003782994446449122,-0.0031066069706970037,-0.002286321032593252,0.0006691668442905804,0.0016983625897733536,0.0024557340564564183,0.0030623096685419085,0.003759000260339426,0.004470107331411606,0.004688422769813519,0.004184006412743562,0.0025606241884695235,0.0008362482168105484,-0.0012810865789494195,-0.0032666758612053784,-0.005227892077406785,-0.006070245338742924,-0.005534891750173224,-0.004673340589541362,-0.00397227131272881,-0.003593937222211817,-0.0029698659195066973,-0.0016177721561081392,0.0002060563508238038,0.001955944195393271,0.0033322698360000254,0.004708908949125165,0.006078452992801875,0.007471151788096533,0.008872695037040268,0.009735024090899321,0.009229999267089652,0.00849326795182499,0.00779013386164946,0.006631700101157656,0.00496322306768953,0.003122661371658987,0.0018035239141090632,0.000510579104302946,-0.0008776425325949307,-0.0022029801119300705,-0.0031941904608244888,-0.0038511735912670365,-0.004122486651312789,-0.004151933209644153,-0.004498978256960334,-0.004751939401966161,-0.004617883969486858,-0.004257189227042518,-0.004021410518979606,-0.004031717847123228,-0.003957977441426003,-0.0037762095176706147,-0.0038948345887639194,-0.004170112630091409,-0.004288477019817191,-0.0042128382788322516,-0.004021949992521477,-0.0037234541150649634,-0.0033735477003599716,-0.0034204395809279376,-0.003526941066815524,-0.0035812958959320425,-0.003455573011728099,-0.00350540158885811,-0.0035695900284736103,-0.0035462416135006603,-0.0035777815424393343,-0.003555643809055248,-0.0037169377059927448,-0.003845029247261683,-0.004168006382907854,-0.004599115113542025,-0.004685020428253217,-0.004416917751069769,-0.004576031687379107,-0.0048189036737518315,-0.004911553785908743,-0.0048049979141670356,-0.0046674054551293686,-0.004689370902622759,-0.004716400968886604,-0.004889242083792852,-0.0050195886945288695,-0.004965710370456688,-0.0049127692987751635,-0.004884636752462007,-0.0048992428983881875,-0.004930681351843696,-0.005239503960701172,-0.005628753777973553,-0.006052938963859014,-0.006259708504621047,-0.00657004513674889,-0.006787713691349322,-0.007092928846682407,-0.007278338845946072,-0.007743018532364246,-0.00851146170533301,-0.009447164857345577,-0.010314970679357103,-0.010956923765993082,-0.011902158007975512,-0.013372668572997803,-0.01376310133975043,-0.01378320530259746,-0.01363495506170332,-0.01349472572551439,-0.013392812400461753,-0.01360869055029789,-0.0136531889576125,-0.013844060168703076,-0.013715294019688478,-0.013375779805843204,-0.012971224651172047,-0.012629901017199584,-0.0121661576849346

Rotation gamma :
0.029011317970430866,0.029124959073017858,0.029218073405583647,0.029214275550357355,0.02924985034903461,0.029199028552242733,0.029215579344088166,0.029197027244020873,0.02932258693163372,0.029415571579715367,0.02942528597426717,0.02958974823742653,0.029663617676212853,0.029620231663600123,0.02964869378933894,0.029733030056587745,0.029732309682980428,0.029764770156483305,0.029864582173836647,0.02968272057217299,0.029469278094439284,0.02927900861287696,0.02911611803575068,0.028895791685005414,0.028678286776058708,0.0287729268717087,0.028979783169802972,0.029197361135187942,0.029435026174143744,0.029669876741078814,0.029864208731708232,0.02997390207501103,0.030141059937606744,0.03022877816861266,0.030407087500421242,0.03049171605917294,0.03058242456457216,0.03060827213369516,0.03051418641189198,0.03041476239599525,0.03022751973696877,0.030222514295316326,0.030170210667445345,0.030233992999664352,0.03035843415219934,0.03044246955841546,0.03054405149810074,0.03047189396511154,0.03037550135828646,0.030269693740672586,0.03005225864018996,0.029887902745002675,0.02985831315299366,0.03003187075084198,0.03012432912925962,0.030158466793159335,0.030227272845467768,0.0301649355171797,0.03018250529727647,0.030050139684011844,0.030053799847501696,0.030156205732523356,0.03028330015014176,0.030438029596790817,0.03055098779524827,0.0305634450892439,0.030595589252226097,0.030735488035922742,0.030722278060515005,0.03030827221551739,0.030112695456687138,0.030126298921528828,0.030367389367502738,0.03057423758762427,0.03082400110712385,0.03114485428803946,0.031574282093180014,0.032048303309705366,0.032412752187365106,0.03266157249735622,0.032870095041281015,0.033318189546080304,0.03357581125752728,0.03397929361985874,0.034001187646433034,0.03392102237953333,0.03375586029185402,0.03372657254476319,0.033861315135053124,0.033992201006125336,0.034161493978886924,0.03428911582218062,0.03449097823604806,0.03450694488772268,0.034496305655822276,0.034511026852483764,0.034395010702952575,0.03462598945051699,0.034670165311278985,0.0346052082822798,0.03461833476149937,0.034540248254823304,0.03464984200509483,0.034813211484149814,0.03464468127326795,0.034521581037331536,0.03454405269886538,0.03452556163776927,0.0344930346438941,0.03452394373152508,0.03437772486329895,0.034592583200020115,0.034676308344440854,0.03464382552079816,0.03469966746144538,0.034679905461446385,0.03474127939588283,0.03468962312033081,0.03461405625479054,0.034660648404593195,0.03456050379863823,0.03460488937078026,0.03454544374494338,0.034590737696937365,0.03463321125136391,0.03488851557845528,0.03473997389812656,0.03465967619165832,0.03460868012391945,0.03453193376311476,0.034484967963130636,0.03436254983948305,0.03427814187981253,0.034293340541952474,0.034226563769989234,0.034010269678324614,0.03366573023493473,0.033362084710448055,0.032953035220318956,0.032550035634814935,0.03205300280937519,0.030284126077227937,0.030287918344300453,0.029625985560071434,0.029237890703502686,0.02912678130824541,0.029062281240300282,0.029106106130251965,0.02917597379464148,0.029293709983883982,0.0294424605503284,0.029542704629404865,0.029617885709778705,0.02966672773921376,0.02960856225279634,0.029366213251271197,0.02927527698036151,0.02928015999167551,0.029067092292094292,0.028840691981159322,0.02835860048250183,0.027407054047647834,0.025979460894421554,0.02438703054575203,0.022541099880730664,0.019963011778978815,0.035865125456116725,0.08341425982663506,0.11939529021663295,0.13059498448983473,0.12825132394368424,0.12006194031175538,0.10760211258906786,0.09424554985091867,0.08385567723707175,0.07786103245696627,0.07190727514218921,0.0648677520127481,0.05671912529425558,0.05400470593422409,0.05028664365108929,0.04197898988897877,0.0378583857548974,0.04082205341375707,0.04179294780833829,0.034736168065340654,0.0313942515267793,0.03302699143095882,0.031160971135358758,0.021504991661779358,0.015960562805414785,0.016688398383880962,0.014808121237827912,0.008940546795431012,0.003552613520902339,0.004210243181174318,0.011167712842414705,-0.0008177486617522769,0.0016817277654428352,-0.001015606333654056,-0.0035299650769590714,-0.004708014284868685,-0.0051568909180923495,-0.004868762651759871,-0.00856569530363324,-0.006844889565247243,-0.009536462680982386,-0.009022518607513384,-0.010798677132243266,-0.01268624058445656,-0.011004488326090522,-0.011786923820084848,-0.012318132593156261,-0.015484598235848017,-0.013127789165765465,-0.014593532642707824,-0.015584806431649058,-0.017418005899129313,-0.018516765817702275,-0.02072188964442018,-0.023268729740445963,-0.027340383084623467,-0.03517491898509457,-0.041046939622444656,-0.05510815315251827,-0.07737869886681747,-0.07773919934975326,-0.09949582921145057,-0.1112254365263136,-0.11358049280581388,-0.1104861010217777,-0.11088556077497738,-0.11501786329621176,-0.11537085179032366,-0.11461025899228232,-0.11614012725943972,-0.12222701245972879,-0.12523320010466693,-0.12079391520013613,-0.11586911524017693,-0.11503054881763966,-0.10637686202395151,-0.09999737657220496,-0.08749141192779482,-0.07484676828622593,-0.07353051522480235,-0.07631292310362912,-0.07379962961568226,-0.06388312521150441,-0.061080170701117494,-0.06599231588051381,-0.06845382157989509,-0.07182976647252609,-0.07275842876463828,-0.06447782155375016,-0.04579706848653303,-0.040515614035976644,-0.043875623585537454,-0.046628718872223494,-0.04033756928798424,-0.031665130223561586,-0.025966816241736627,-0.019821610884886383,-0.016766442931191023,-0.016586759633373464,-0.012580690892123523,-0.011438213120118173,-0.013552824760531164,-0.011200097916209814,-0.004196413455704237,-0.01025000159133084,-0.007376071047278696,-0.007329529251642717,-0.00615646681523755,0.0006972504354282525,0.0035779910930839294,0.0037621630825461732,0.0017435769622060767,-0.003137980656150063,0.00028687385030127426,0.003042335451943298,0.0030719891480336632,0.006453490978703022,0.0033877706032931516,-0.0003368840150131449,0.006721629564091166,0.016533847321427028,0.02055843572237169,0.020372167101633382,0.020608572735475887,0.02199521297471597,0.02316487255129286,0.024049920195837515,0.025144016749662032,0.02450128892394107,0.026352266487646457,0.028052308658662248,0.02907114925013125,0.030345740138573316,0.03141639020045173,0.03108712871941094,0.030196145043734725,0.028733870487394477,0.028189496304206037,0.028400251019338685,0.02747712879475735,0.024935316107463443,0.022181628720377135,0.020610429967237404,0.01995166549523449,0.019628213302888425,0.018315830981275608,0.017014917517435814,0.0164099251440094,0.01698029312194909,0.017607323318367965,0.01787090335809669,0.01717671063102282,0.016047768484104327,0.014906992176700686,0.014627176924813776,0.01528918487546043,0.01619357853655033,0.017694025951086923,0.019730532549643364,0.02255102217393318,0.025904977266312804,0.02900514980160381,0.03385244720493809,0.03621641179391176,0.03854196080920645,0.04067612953553229,0.04235262961738343,0.041754099814277336,0.038941949731049634,0.035322939198121316,0.0313370498104075,0.027537708256918245,0.024140324095907766,0.02117571474156947,0.019385380303938295,0.018579846071408015,0.02016861422583757,0.02228153731673928,0.024687200913189898,0.026977746734675255,0.028167970855475052,0.02901112508806807,0.03016289403740883,0.03113588159822779,0.031272334015588134,0.029726278069361553,0.028115363470692892,0.02722996782291139,0.02702562103319374,0.026082092159535126,0.026082092159535126,0.02344930723115191,0.023791648998520445,0.025201222290519527,0.027081206546441545,0.028992055904815385,0.030487692007789925,0.03222642434209361,0.03470351771305295,0.03613320476578697,0.03751975361603469,0.038502777793784276,0.03878472014785813,0.03905638945786174,0.039164435828270346,0.03878363674746977,0.03779464613975193,0.037568543972624664,0.037902568796706886,0.038044450583672056,0.03774863309799714,0.03733157871110466,0.036682804247597955,0.03695323895231315,0.037619826062636565,0.037687284393531154,0.037353401792639955,0.03631669299756751,0.03481062621069127,0.03357061779650651,0.03208773783708033,0.03141574325072799,0.031077395153426442,0.031535071930232,0.03227999306622989,0.03348857612163437,0.034536987093164,0.03505439468409814,0.03509968687007007,0.03554509987096531,0.03629520251468227,0.03680677406299803,0.0368524290076914,0.03644668977197863,0.03512813014245273,0.033777264631747204,0.03200333366170772,0.03044008446849735,0.029530712516663185,0.029124840667580924,0.029053762301409294,0.02930822503016425,0.02975294987589024,0.030002024349436454,0.030056406734564133,0.030293190830912954,0.030952938157277822,0.03141322274375233,0.030718686504235163,0.029640173871150907,0.028687878096015675,0.02782426542240462,0.026699769735678336,0.02529684941832248,0.02360320263466955,0.021620493276537023,0.019752793659555505,0.018587386093788263,0.017855453701347397,0.01750536769850219,0.017342959866205036,0.017645212859407008,0.01798116166334628,0.018431390455837762,0.01903515873807825,0.019031738292317614,0.01880016384588216,0.01805311748186679,0.017106670137422605,0.016412537800678164,0.016010192971445465,0.015526806633758475,0.015355393905294251,0.015449947717096898,0.015979391639938324,0.016437490481151982,0.016543170288176336,0.0155119255637608,0.01492225724498148,0.014406260115076824,0.014674939061574212,0.015068225240101098,0.014978214872850623,0.014308646594564654,0.013152919949001557,0.0117638207038278,0.010478590738622645,0.009704218546975445,0.009137457145907565,0.008242711606612645,0.007521504508325301,0.007331361413343548,0.007576966950647587,0.0076501874491646605,0.007459490641553475,0.006980299176844414,0.006364353610164802,0.005446273267615008,0.004830922726307686,0.004570378798837371,0.004670132791278028,0.004840000370404162,0.004957066852027959,0.0050159760313909,0.0050854734633793055,0.005393371842218247,0.005348921240139426,0.005200160018710657,0.005305583936560514,0.005630175804689832,0.006088506478122672,0.006641751558111381,0.007000857720662763,0.0071813408105585955,0.007056124099089065,0.006617892120814946,0.005842814882543003,0.005243916866474197,0.004866706194583748,0.004421797051510894,0.003213816136128048,0.002869349952952561,0.0026701358521813326,0.0018037768346034389,0.00101760929850786,0.0007281251010476985,0.001522061300089566,0.00305964777776233,0.004595425608188196,0.006001902896505865,0.006750925078057198,0.007078581088119155,0.007794792791897977,0.00819133732725664
