Acceleration x :
0.0044025643596032745,0.0034790682937818926,0.02273151058392832,0.021143259578372816,0.007814220839826157,0.002162725711735402,-0.008695223191747209,-0.021230179810000117,-0.013997734063636743,0.011524766937200911,-0.015634183008916443,0.006385769214085303,0.013908503143914275,0.030686972233571575,0.013271696227852953,0.008068894287216244,-0.02056306452064309,-0.028581599735445343,0.012526507308671716,-0.011441227114392676,-0.002837468184060708,-0.03557886104453355,0.012865904464025515,0.0437966223255964,0.041891752252075816,-0.02737323544254759,0.0041639806763778325,-0.023632601309230086,-0.040711091100145126,0.0029413401213110773,-0.010044061109481844,-0.02142714085393818,0.01800887168442714,-0.0007711848024267965,-0.024507080305530688,-0.03141863837583223,0.006679919580271234,0.002512358421907993,0.014332703922333894,-0.03488379373574862,-0.025003487803635652,-0.02965557194277644,-0.006709518992446828,0.020597688309452494,0.01023881193002453,-0.008143463068990968,0.026568994971131903,0.0151338448294322,0.013064459243428427,0.005328415352237061,0.02055791342149023,-0.02372627094205236,-0.0003778156271633634,0.02846223168907454,-0.0031881544892312375,0.004563123789121164,0.020794601404329295,-0.009625514895358355,-0.00975934415027732,-0.01756684298837208,-0.034605020176852117,-0.01969867994338274,-0.04175733505033422,-0.03025222037838539,-0.020236782575189134,-0.03763988522756845,0.023911068907449953,-0.025082759018347132,0.015131086616765241,0.004363173920364351,-0.008686519866305753,-0.004146943347431079,-0.02145471384745324,-0.025439901892945635,0.01186752166848746,-0.0356213165133493,-0.031158112859679385,0.010905509377561975,0.002577294008946046,-0.005305688638842548,-0.007911644199158763,-0.03625610956883756,-0.02208173002186231,0.005951640125873382,0.03400571627656463,-0.013079136222752277,-0.03391388925766805,0.0072785053862840865,-0.008574756883544614,0.001149571751217445,0.026711611462349537,-0.01044914505383349,-0.04976977845106739,-0.04207621000746731,-0.05154553768562618,0.0038612088977301026,0.0027553611248687954,-0.01069192028416437,-0.004657745267891732,-0.0024269291777571198,0.00029106089828546825,-0.02034717273066053,0.017062826430902348,-0.02608001957752276,-0.01955843578905333,-0.0005418664547336447,-0.004666849310488033,-0.005746260025928495,-0.01176899205581285,-0.003999250820174347,-0.012992743430798873,-0.01699662476031808,-0.004967797312341281,0.014625910148670663,-0.0023718469801031457,-0.02144558754279278,-0.02232345493942266,0.043818669760623014,-0.008159394144595716,0.010287316972069674,-0.021135446164675522,0.008526667400030418,-0.012622325516096315,-0.0028501295903450227,0.026111476445000153,0.03266560622962424,-0.014844114910037023,-0.016641176085884217,-0.0031732668765311243,0.0007045467383028153,0.051400694987992754,0.0038330393950600406,0.0058403943079872985,-0.0006645202604744554,0.011467299987276783,0.004007571123947855,-0.009450423760755802,-0.017512956235022283,-0.031148669177899137,-0.001790947527830576,-0.00932539430022298,0.03055589319980936,0.0038143038701935437,-0.06306059607956559,1.3952470286801457,1.2927357716239989,0.9271945595797151,1.1730099065251647,0.5672341433424503,0.7813125089611858,0.5290811209609732,0.45155897840652615,0.490601241245307,0.15382104519056156,0.1505287713126745,0.25004041729457677,0.16975677413754164,0.12752468401519582,0.016888406012335325,0.13254294143547304,0.3206351717386395,0.3373523881858215,0.2443169798801653,0.15916319166980683,0.1438568558007013,0.2671147948826663,0.15244355542543345,0.22172570203412323,0.17010511265117675,0.19802609761999918,0.03953928454152774,0.15592830140180886,0.21462387067228555,0.038893447218928484,-0.042843824245943685,0.03785693236159859,0.02586963507971959,-0.20374465792989357,-0.1703012197451666,0.02475885625964729,0.04851928063305094,0.001593188759926852,-0.015581033757794648,0.12624005103213712,0.3032019707755185,-0.0010563630572876718,-0.07170728682980407,-0.047948001817427574,0.17639338087411596,0.25372316092792896,-0.024264400973322334,0.00898105953320337,0.16601334982551633,0.1609327038266696,0.05827068578875623,-0.1320266807427164,-0.13486475371285342,0.08786483726734295,0.12577507300204596,0.2694693403858691,0.17589198895692823,0.24161186737362295,0.12902957215281202,0.37281277394983914,0.33734453367292877,0.7454151200193911,0.6647893123611808,0.6558488308627158,0.6389177890017629,0.5716180940477177,0.6063343103809282,0.8650286107849329,0.47459005417563016,0.9609538405142724,0.8418881198246031,0.709216410043463,0.7332843911122531,0.8322295531846582,0.5972253404477611,0.7323401690647006,0.46262598707228897,0.2129337621608749,0.22654028097530826,0.19740517097637056,0.2949983339179307,-0.16340853762198237,-0.39481790420468893,-0.021059072443237528,0.43639403290264306,-0.3473210802208632,-0.6736288907684386,0.2699820391483605,-0.006002177865622797,-0.33605219230744987,-0.559175961103849,-0.3255785464249551,0.2692077851065434,-0.34280495450329035,-0.7878837040450424,-0.7600808472968638,0.2432075755998492,0.2887246787422336,-0.016329581394552952,-0.02234109562739031,0.4105141801062971,0.287917289615795,0.34456235609725117,0.39495672815348953,0.9202675367955118,0.052709535397123544,0.2528236000060104,0.686687840436399,1.3383799169458448,-0.13139256582395173,-1.0355918059345335,-0.5392618117788807,0.7556547744829207,-0.2111367226762697,-0.8043618875719606,-0.23299057135954498,-0.259022600776609,0.2908590604224242,0.3161470300065353,-0.1749421956851147,-0.5008399093281477,-0.31394572056997566,0.11982724311407655,0.15489793544076383,-0.34605285038333383,-1.552186479885876,-2.191100177234411,-0.43678215543739496,-0.4508999665085226,-1.1954049128804356,-4.077883061128855,-3.3675521870374676,-1.3939241095133126,-1.1605318985503166,-1.0900105016034096,-3.549539570260048,-4.3177498018682,-2.9598756415098904,-2.6629963892161843,-2.324451539842784,-3.0108696234270926,-1.800041442900151,-2.3697411726385353,-1.9461593481011688,-1.437380535532534,-1.1016294815961272,-0.7719441574394702,-0.30711598414778707,-0.17025584623347967,-0.1959172157072462,-0.21006569591127336,-0.2085449160847813,-0.22631284716129302,-0.18907829133160411,-0.1870391684531234,-0.1783457753172144,-0.20860073792524633,-0.17987130438406018,-0.194829950193502,-0.1862766048491001,-0.135738842266798,-0.13977716700532472,-0.14922548842807298,-0.14697066783914342,-0.11192357558375224,-0.1198503773944918,-0.08288400751431473,-0.08824052957878448,-0.059943797499593346,-0.0859376777302008,-0.06830424148724414,-0.09044220434152521,-0.06489578931720462,-0.06988106234990991,-0.08741175060444512,-0.07678240270358509,-0.027919868440681603,-0.0407505554608535,-0.08585252019739709,-0.07712431147643364,-0.044752854471351015,-0.06830989034331869,-0.07812680304986425,-0.04397323926782701,-0.04470223852896597,-0.05838543017564807,-0.007753331240243278,-0.0196281217580894,-0.061076655720733106,-0.0532230013445951,-0.06468050259870942,-0.06647615384382662,-0.02657661887187278,-0.04420864175916649,-0.07758075000704266,-0.03437130275252275,-0.017990639624703906,-0.07780093209636398,-0.024880932286335155,-0.05130513022560626,-0.06844815716969314,-0.028342381868802474,-0.031722413945244624,-0.031911936034820974,-0.0067439726762531784,-0.007690806806000182,-0.05802160639851354,-0.036068857068161014,-0.039735948757943694,-0.04695288983285427,-0.023080047743674368,-0.020448160303547045,-0.04446944355324376,-0.009651975927309831,-0.03541947836489417,0.0016816198151005663,-0.014312589291133918,-0.022635256268375085,-0.057870064532035026,-0.016661514479370088,-0.03761711855662288,-0.018461387525167083,-0.013959274349926271,-0.03218047589407069,-0.012414007394504732,-0.022400575296243185,-0.020681334305182097,-0.01802960737013491,-0.00394875703373109,-0.027609548966051077,-0.026769221117813137,0.0025465954787054212,-0.01951508070451673,0.0025795427628370815,-0.018480946175585267,0.006412485974363517,-0.04777960014769342,-0.003929652186928433,-0.02480118158101104,0.026047957638557998,-0.0300050931999227,-0.02418937667546561,-0.010185143230739048,0.012538555081136292,0.002312148971774877,-0.029051311022869775,0.004863973894974333,-0.020845719670213293,-0.014051035153452539,-0.02613670450109057,-0.011293393308651865,-0.001240819956445921,-0.009492102911436814,-0.01833495726705878,-0.036827148639154615,-0.0132793760691653,0.005491259497441933,-0.023500624943035654,-0.02521205937026534,-0.02027149541225517,-0.05070072089193854,-0.010127475351415342,0.030474169733107553,0.0370545276542427,0.0030856562355038473,0.0026930016582293317,-0.012967688904644455,-0.027271393919712863,-0.03037699296894716,0.009030481315634097,0.013300764775421702,-0.00116096001003134,-0.015157594456133665,0.005345690143201499,0.0025829879599710693,-0.006314494646983803,-0.027957435388537122,-0.01856046398546896,-0.01963789651672123,-0.002235221980960341,-0.02229020112379221,-0.02241456957226619,-0.012615017850830917,0.002480209147153073,-0.009040383367607136,-0.007710721649444895,-0.0176750446116901,-0.038152556590596215,-0.007891164812599891,-0.029698860811942722,-0.002125811213606357,0.004915093873324804,0.030738629355572627,-0.01460730933783343,0.020860385233093984,0.00018892451012980017,0.007362355165524058,-0.06485939369641709,0.0016862503244454274,0.003605041894163878,-0.019824263101408723,-0.046006589992647055,-0.023937555055576376,0.02125164728971431,-0.02745086725602159,0.0005271681409316442,-0.007754725758775021,-0.013445053775561972,-0.02299275990257738,0.013063476287672527,-0.01945094997672131,-0.016139537573524283,0.00914732689888915,0.0001259529883506275,0.0001259529883506275,0.01781975373693858,-0.006829664498596685,-0.009763664132368285,-0.036632578198413826,0.005057480894034961,-0.006710842729030992,-0.015256273624213645,-0.02903185512044001,-0.0036007259078280184,0.0015842713761761841,-0.008164193617299314,0.002693825354603177,-0.009688888712972401,-0.0041602121084913955,-0.006512398689126712,-0.030557701564405577,-0.0032600329861757925,-0.01370950198158389,0.04099033729978837,0.03316440204763785,-0.0035390311635914258,0.007972937370007276,-0.007842570722298114,-0.01370463971844292,0.01338542455130373,0.01338542455130373,0.02090582496015122,-0.020443657658365554,0.007511006388594978,-0.035713951816421466,0.00813443152080872,0.022232890579139346,-0.02378461124987807,0.009256235200038645,0.013517539056460373,-0.01692496831319295,0.014018742602335987,0.026384297470434102,0.01609739149031811,-0.0044673843551543534,0.003129285029265156

Acceleration y :
-0.04544668195440899,-0.011355267005634958,-0.0036717964060080702,-0.004842717619458562,0.02961037652760278,0.03143151612371439,-0.021127698966348543,-0.023044015165779273,0.0026776867851440326,-0.028939534911199005,0.01095052327128942,-0.03126132892227033,-0.019540806517528833,-0.010448059350089169,-0.0018412977525011228,-0.021327669384703037,0.017543660758895567,0.0007127045718196313,-0.0021836810212684213,0.032875177876674565,0.022834078192547895,0.0017384861174090474,-0.0032757480055937774,-0.0035544530658313304,-0.008015859771348187,0.03900655220458284,0.01986082996884361,-0.01117519088112749,0.002003118698987964,0.004152862487797392,0.0062237247907236445,0.013741954362904651,0.0054479574993660206,-0.015259139151446287,-0.028330246189725582,-0.012032384240842657,-0.02125317480980884,0.033424023381492585,0.024719222935580182,0.017102333032450404,-0.004549722311909136,0.03116695146997226,0.041895496845431625,0.022545096050179562,-0.007726148689084221,-0.015390365457325242,0.007711871285270899,-0.00660486788295093,0.010069959310785633,-0.018562210701272123,-0.009206968681234867,-0.0013328480474476237,-0.010523912481719161,-0.03192063079793006,0.006839048244050354,0.03220561261861585,-0.015011037008737911,-0.03718425041455775,0.021337585707230027,-0.016225771676917793,0.02669143404071219,0.03346037105321884,-0.0015095978485354861,0.006168234597932314,0.030182463627401738,0.02938693390211556,0.03523873552010627,-0.007404797505430178,-0.04114318977394141,-0.006546197639917955,0.019565319904277567,-0.003161374938515655,0.029903870448307134,0.01773966282160836,-0.03059437574640615,-0.020342409790575038,0.009164725558261852,0.0037670377976421147,0.024590922664082606,0.01382027915447834,-0.04127634660035837,-0.034054140261863354,-0.015023258311138488,0.04157028347905725,0.03361226911272388,-0.045747500665043475,0.024574471569492013,-0.023885370493901426,0.02270379145994084,0.017802932749589672,0.045774653533450324,0.009591590934514534,-0.029419374866993166,-0.010045676536188692,0.035475188324216284,0.013341286298766498,0.03360051245955983,0.005576858275773702,0.0203916100940085,0.034455325490876564,-0.0015916910652900697,0.008626574406572034,-0.007341675420387764,-0.030226955789676865,-0.040863240321399645,-0.010819783305888994,-0.006115753779557417,0.04145684056668542,0.0518832086747745,0.01290172241278924,0.015387359507841756,0.04615729160890914,0.023090263177012092,-0.018181399256718578,-0.01362001875846763,-0.012492745461320736,0.014106785070325712,0.04799618377413135,0.010264569709077477,0.005880621857920778,0.0010769212886571039,-0.010432443939137738,-0.00009934368534363784,-0.0031775788671118787,0.012729745113058015,-0.002880600647955725,0.038678105701506135,-0.009650855974236037,0.00044027791314401834,-0.003745579736493528,0.014946507847076282,-0.03669516998967155,0.0229954359168536,-0.003743327557669545,0.009833176571468356,0.03361660507783527,0.03376992790944641,0.025896993444103282,-0.005383686349319759,-0.04140090912836603,-0.01713129769038642,0.05055828934710007,0.09144481464596464,-0.0008656487342817853,-0.06068800346301868,-0.0051172642402758355,0.6452284334532916,0.5111467838089913,0.11553768356083892,0.07912144011040217,-0.20275098898373542,-0.31158224284164604,-0.3053742550469935,-0.2180973372028209,-0.3587389846835285,-0.23810263540996238,-0.16430464621149002,-0.2347416345442645,-0.16147621785253286,0.09046256214296444,0.15056346816672012,0.13799014659123496,0.07187264715908095,-0.13736120103793217,-0.0013395186751848085,0.0109455993593554,0.05025156148548703,0.03995931831819471,0.061046762905968346,0.09070818920079618,-0.006334270209821988,0.031508638763823545,0.09203301719692535,0.11529437632425688,0.04912657604354899,0.12064608521629124,-0.034258658991171975,-0.1154621249734424,-0.19277137369588015,-0.06734033292511012,0.046425760686211286,-0.06877947604986838,-0.14074136326182632,-0.17247792446343227,-0.024614150559331756,-0.13777689656619913,-0.08886656165579333,0.0737213939980371,0.00837690592786239,-0.13555310130319556,-0.15516157307932152,-0.09153436522609554,0.05669880596268922,-0.009122547509014839,-0.12485786682558245,-0.2593885480121709,-0.14849884552080184,-0.009342574905531364,0.06703149073822423,-0.15546725976131856,-0.07607135922424495,-0.1328735250967089,-0.19827948785917832,-0.20869639858575537,-0.05618396090888418,0.026747128017013892,0.14063840521085075,0.08413151422422378,0.012629359186725923,-0.2206487569849938,-0.004953217372784274,0.06405351610705257,-0.029185123153124003,-0.02834111236032331,-0.0003371202527951027,-0.12801987452046013,-0.08951046731621026,-0.017266491210262757,0.11224562887866049,0.028149937169777692,0.01018140777053777,0.02766868157503195,-0.29533099993839856,0.05056073703251313,0.07566596589428372,0.06953486099443398,-0.1035376774944365,-0.22991954815005883,-0.02417980512952199,-0.2708739830194041,-0.2653464152369648,-0.10219868397563696,0.3876815495187416,0.04109652392088901,-0.0649710419439245,-0.33278811247758566,-0.17284001750778405,0.2850288016326725,-0.04344578132762108,-0.22206258757198227,-0.023472124934336168,-0.147892230530316,-0.20242983073797075,-0.0209433599419659,-0.016056030858401207,0.09411385119212791,-0.09333872036747634,-0.07839392955345101,0.41575997180528934,0.14292057959758675,0.11980535094267689,-0.042727910815272475,-0.08639855497390962,-0.04643488014100585,0.3014754027112387,-0.5642914409540594,-0.04426683821980841,0.20533022835459558,0.002950746985062142,0.15232065969812683,0.07912888363134116,0.49169371265713124,0.41271811989136037,0.13222918104487472,0.08287851848844438,0.22865584835717453,0.5022419581457972,0.4031379887824878,0.14131342752873896,0.24416447446588424,0.15625649217655882,0.36256150211375204,0.2344442772991955,-0.6199558258350938,-1.3663215245775877,-1.0633991927273572,-0.23875841417126356,1.2981098658777772,1.0780065408810973,0.9733844291508197,-0.06660664378912187,-0.6884348302341997,-0.2817148365127854,-0.2850632336252369,0.46039388063866643,-0.08677049355884082,0.923897271599993,0.9118623312175274,0.7786505962755531,0.7057908195089548,-0.05540822729603387,-0.11296781480652279,-0.08879170632129535,-0.13254764501005412,-0.1390419754654169,-0.12271408712938427,-0.1346332465119194,-0.13993773699505255,-0.11354947801884263,-0.1110487837769091,-0.10527939746207557,-0.10116754169645718,-0.09400869205091147,-0.109634560464276,-0.1121425612298306,-0.07800175189808942,-0.07887711909366771,-0.04249390112999826,-0.059235197139088994,-0.06487274636833462,-0.07437900852339807,-0.043622599199251266,-0.05249247228007298,-0.030082546916883435,-0.046213734503882005,-0.05921440551280975,-0.015032784191309474,-0.02389179110153345,-0.03531507042563753,-0.017078558289573994,-0.007289386969080078,-0.02808279478427721,-0.035484657122171484,-0.03640545262836385,-0.003999518250355322,-0.04504679591662716,-0.045501398683176375,-0.05211091648342553,-0.050460756389913146,-0.0014438642521206928,-0.02847069584003184,-0.008193885502664488,-0.03773582216600189,-0.02713850880464306,-0.04015255303508602,-0.0479401107719168,-0.05408044015783816,0.003975074218498776,-0.0009295502056280384,-0.016743171730701577,-0.009631091827841009,-0.04822231154704932,-0.0010012986978261325,-0.04913549000236671,-0.021835064067703205,-0.02072835178468376,-0.029622028149489776,-0.012032573753799078,-0.00440150148874527,-0.00842742368883628,0.020445831349142827,0.008831576051426236,-0.016817920892278196,-0.044056656934693454,0.0005276211953430902,-0.03462080226787366,-0.028894839536235666,-0.0013807243288858444,-0.007720274929079459,-0.01406798628825345,-0.006537908731363131,-0.021636127979098817,-0.01037289234669297,-0.03664906810891116,0.018952963584527607,-0.022785875686246435,0.004259668165528274,0.023740637394122313,-0.00010947750003188048,0.003183578493402456,0.017354638709529534,0.004729506746293919,-0.018259721765003633,0.0061710184975963785,0.0034224227569429784,0.016890916488185758,-0.015382178725936682,0.007451608347310684,-0.011774949155852664,-0.001958966175896785,-0.007338144314519013,-0.014455575675109866,-0.00518860273945902,0.01090553791866987,-0.009202604175015585,-0.026435760512901467,-0.014157647607882972,-0.009467825274239294,0.014551739800762152,0.002978792048501782,0.00431834611466038,0.017790719438699306,0.004861046718948637,-0.016328895266319157,0.022368465408217162,-0.01885955767154228,0.019239149839966555,-0.008796911734243622,-0.0341949506717734,-0.004844045922619989,0.008670564245348214,0.009355258003057679,-0.014399216120172057,0.013834754062758293,0.025403357858397067,-0.01991917484324658,0.022222074640891515,-0.0038129561590787486,0.006211271163704805,-0.009922576454549562,-0.006977246571765863,0.010635439714929088,-0.025190000518795566,0.03691322405398823,0.013414053565810899,0.014029305095545714,0.01963407657484058,0.010366859898128314,-0.0007100406161614955,0.0016311274557127035,-0.016897488934511783,0.028081710222177206,-0.015714813922008034,-0.013116533065604744,0.013298115018964744,0.011559036816272418,-0.028383161403762642,0.012100250428839353,0.02821419347844785,-0.019681763057911302,0.0023622301965035147,0.014457172835507662,0.0029631363945882183,-0.008444335436908295,-0.0018428272704732079,0.007642216711453511,-0.01893503634383669,-0.017563677208684386,-0.007834460481078713,0.04446850740490481,0.016083984019473425,0.021003072506259195,0.0008128473279124591,0.00545804963511764,0.015831271917017876,-0.04914466425608843,-0.0009683735330530907,-0.01172943750520353,0.027373623601614962,-0.037591721537173724,0.005202773970350972,0.002189564199838787,0.000008454629264642222,0.011226298872212647,0.01396315365731134,-0.0003755479647883476,0.03450628849313361,0.029603264083515386,0.029603264083515386,-0.006755227005918277,-0.0017350387796919676,0.01493192904916359,-0.004329331587089109,-0.04402638966059312,-0.002868158437380043,0.006905772216909099,0.00016044449804403484,-0.0168147768038325,0.02117637183010811,0.015878649014479013,0.01832214230961399,-0.03374894905349938,-0.028621637201600242,0.005468568175021209,-0.024795363761577753,0.011133573379239533,-0.007801157003920525,-0.006967737816259614,0.02897973677413538,0.0024056826062180334,0.012795860018674284,0.012709077926009194,0.012510494605498388,-0.020696837834990583,-0.020696837834990583,-0.0055806354059925066,0.0022870513485475385,0.0048047722165123555,0.007946174373134272,0.023793650789570527,-0.010209239917312516,-0.00648012497514137,-0.010350027494336245,-0.002467746957801864,-0.02870841586933238,0.0021838625427146323,0.013966817193920723,-0.000259584712045671,-0.027843147659371605,0.02247039369601989

Acceleration z :
-0.06830226415928918,-0.06575435607503168,-0.03911470245390664,-0.04658936288324184,-0.03898074190989136,-0.07999409475908614,-0.04646656762063503,-0.0558865762643516,-0.043765907526924275,-0.02012078694612719,-0.055742423119884914,-0.056026861517876385,-0.022364444536936933,-0.039428714006254445,-0.0802755968478974,-0.002909734840072633,-0.058127482492360286,-0.043608132282481525,-0.03433357369117439,-0.08220683890511281,-0.05587627863262314,-0.045993228187575,-0.06095354993087239,-0.03940778538265731,-0.037316226780752186,-0.045988752941857086,-0.03415676266941009,-0.01724523379310267,-0.06287949019188527,-0.03414330496621551,-0.0387840046282392,-0.06062901241793297,-0.039084745707060206,-0.05838761756615713,-0.043705783970677294,-0.07017403568080625,-0.036798936324822715,-0.04608284726636484,-0.07782120769941248,-0.05553252496256027,-0.07751679965904913,-0.060312169587682,-0.026653031409217508,-0.03188894560158951,-0.010180478472064713,-0.06074469295316375,-0.07047843002143782,-0.024691236666822804,-0.0390571544472361,-0.04878640257006045,-0.07796931093321181,-0.06555069586224854,-0.03426736288743559,-0.04683626401613,-0.05342612726783845,-0.06540853831204585,-0.04893409024532884,-0.041432824936858376,-0.055794509500148706,-0.06791415075769182,-0.040983660963829605,-0.0653828376152087,-0.05085795728026423,-0.05309702317763585,-0.060571231515822,-0.048306231537414715,-0.07045823661678005,-0.06791462111514993,-0.05384443031172268,-0.0559325114650419,-0.06311531280833296,-0.04875237700287252,-0.019584280333074276,-0.04098211746071465,-0.04666953371367417,-0.05325204020941164,-0.033811518011870795,-0.06329894401323981,-0.03173625295764068,-0.06077422957490198,-0.05837842961270362,-0.05820210493141785,-0.004926723803969798,-0.07017800860302523,-0.01990085830184398,-0.06566908894437365,-0.07733896800726651,-0.05114791667016688,-0.05563344632007647,-0.05339390093209222,-0.02212886394908419,-0.058045539829949845,-0.04112106470710132,-0.040972276486712506,-0.055187309987773187,-0.05339148977929726,-0.007315604259970132,-0.038736370660807005,-0.06311701157507486,-0.03154249536765273,-0.027054244037694297,-0.05323928575911559,-0.05609260196415707,-0.04860419157068245,-0.04125148615373764,-0.04393338674805127,-0.031662685397930906,-0.050671796191553584,-0.04095706978442613,-0.05802362482566386,-0.0701429783888394,-0.02405481562654022,-0.0749205178218428,-0.07521998939218465,-0.034071198711229954,-0.07746031109830365,-0.026581703755655325,-0.0608658351148013,-0.07747591965938917,-0.06789437747814227,-0.04365228651803918,-0.06325089448727667,-0.04124719813768752,-0.06068294826198835,-0.04871466620783321,-0.07324694945327938,-0.028805256990063935,-0.04122461184654384,-0.04376098932321183,-0.0534831181520829,-0.03448248520914931,-0.05842305420571938,-0.10167507109348661,-0.08252489187833853,-0.0340466624915949,-0.04616970356591046,-0.04601840829460416,-0.07744884898937307,-0.06293011070084757,-0.027010167433950117,-0.06546694940181914,-0.05814789509272668,-0.043479633364873004,-0.05514370830806437,-0.18710711912279948,0.19595349259702488,0.05244982044843491,-0.10767171769239939,-0.07491174542692024,-0.04066247531860135,-0.032617129728686994,-0.07081472190425266,-0.06156844869251363,0.004680387785017955,-0.02008158288032282,-0.04467690772488713,-0.014732095628126989,-0.03910541403575334,-0.18027172014480455,-0.0860155835383106,-0.07284567517600953,-0.03464720393432071,0.023627272113563958,-0.053737494771950875,-0.09403307757349684,-0.13405461550690234,-0.043306683384184724,-0.08780627548051997,-0.04371560211179312,-0.0439084806356579,-0.10866373353758826,-0.09987200372689403,-0.05431713042396586,-0.06943785319363233,-0.028024580057326238,-0.040479684363910924,-0.11832169738933443,-0.0270033426842303,-0.012949005895416484,-0.08659571238067,0.03953553994817193,-0.03554640181334689,-0.05973955733149778,-0.09026585226077585,-0.03575093195909867,-0.026262207744014446,-0.11700181042980402,-0.02461076215900248,-0.053496991413808426,-0.045290943403425626,-0.07439420152595266,-0.0017839459659473504,-0.02199335533537669,-0.03175439825239591,-0.06541922866941895,-0.056816541457688434,-0.0922859599115327,-0.038238433359318875,-0.09153538813940248,-0.021440427310485392,-0.0011423402193573564,0.048767492373613636,-0.06409086157591082,-0.10752975193844176,-0.07522695798908825,-0.02050405977582559,-0.03890446636986453,0.09375364871076308,-0.0007732473969415878,-0.047228368606255386,-0.09279216500115581,-0.10688908854788169,-0.2104134316367097,-0.17126546166744083,0.020428021697816438,-0.01577779729726608,0.03631917628413066,-0.08574764418397099,-0.1708525152186863,0.04229466136400588,-0.11558130350685678,-0.09401348695703782,-0.12972546372879296,-0.005391337078702054,-0.11064940006262622,-0.012041617860068798,-0.18728844877276568,-0.10131496907682157,0.0743486362180207,-0.226877403975185,-0.2261473544012755,0.03952770370158832,-0.04310343872993253,0.0358606668107328,-0.1704744391539134,0.3123182289659977,0.26177993666073307,-0.34965387054998426,-0.15804633473539725,-0.16631085320105776,-0.13578974133697339,-0.027849075076659208,-0.08336811036998405,-0.04628981824766379,-0.14016741756508125,-0.03913745314183179,-0.09405708863674662,-0.09237328200195916,0.06965800788349005,-0.05421015378499869,-0.03686440962633351,-0.10912108538364991,-0.07165838792046997,-0.14281480853501707,0.21253460677545516,-0.1657987389604561,-0.13156331928097642,0.06666200897186063,-0.2984866509577259,-0.12916932768337427,-0.07618723155572078,-0.11556272667055018,-0.048345910527254454,-0.09367944183023647,-0.1272139466987457,-0.009952772946702316,-0.10433842681753448,0.020613146173488348,-0.24426749644894152,-0.02507402772261994,-0.05349190424673725,0.03077792475292226,-0.08810802577291615,-0.07808375849258155,-0.10604903012770227,-0.11592724000085144,-0.09852054345216602,-0.16358135517193004,0.08125869873426854,-0.3468256613867357,-0.16313003120785577,-0.08622724439445882,-0.07998190199779347,-0.12415785619691014,-0.07839604844530113,-0.07466736504468136,-0.06015785580880474,-0.08588188328919932,-0.030325776521652005,-0.10139851004127412,-0.0665342178737279,-0.037219746419624423,-0.02390614842044888,-0.030952500435116232,-0.06716393517858814,-0.047725678003369826,-0.04293947577329818,-0.05759120649145916,-0.043214475056086665,-0.05279552861356642,-0.06700435613612644,-0.044514132078341206,-0.06316322533697821,-0.07482860175468958,-0.087164780972898,-0.04078693738190923,-0.04747136074900627,-0.05419144451795146,-0.06633695543569047,-0.041974457532889205,-0.07112424907772802,-0.08526187909417786,-0.07104701912305317,-0.05840744107805658,-0.07041658486556261,-0.07020789685121272,-0.06040966601225081,-0.0701024637153605,-0.07704143723226152,-0.07698893072688952,-0.06782976040986832,-0.038759852001094254,-0.10845536061706952,-0.03849020018028095,-0.048220758910779836,-0.05997868158330675,-0.0863892574226018,-0.028740046266745773,-0.03842038178050425,-0.06457954927515239,-0.06517936006551608,-0.047928064141096544,-0.08156185553246177,-0.04771220660044346,-0.040191638369881544,-0.09582166889016516,-0.030840400096459778,-0.05462993183333892,-0.06164858755690511,-0.09332934061777777,-0.059653253587801006,-0.06665433255548123,-0.0451091570957331,-0.0476182492732536,-0.04729275277908891,-0.028252011588052846,0.008127823683508905,-0.0379453275976819,-0.05708443514625541,-0.04987650392828509,-0.044642119539296254,-0.03011166798009071,-0.04969505098073277,-0.05924170907826628,-0.09557632496012375,-0.03778527363118483,-0.061561384197487495,-0.04959312040964141,-0.0640871809146367,-0.030395286677463444,-0.008541113767202478,-0.0567400421553757,-0.03725170332731213,-0.07405757628299761,-0.06866521115358919,-0.034991793288022745,-0.0397648186594015,-0.0541271014443133,-0.061597560622566376,-0.07104318776472937,-0.06626021410478279,-0.025116387293313162,-0.04724221446851734,-0.03961105286979582,-0.04933746514813974,-0.05427752449936233,-0.04707326024293434,-0.08090878931805491,-0.03257251655211439,-0.04722663330689538,-0.05154489836480934,-0.07861887001628055,-0.03253698629771825,-0.06187919970869552,-0.0638073090939084,-0.07847225548666902,-0.06634002417561131,-0.044936905801366084,-0.029979700747050808,-0.02743553040628321,-0.044654376232670615,-0.06618765575864817,-0.09762654462135396,-0.02519063755632378,-0.05645732535701245,-0.03267033263709163,-0.06395746728747617,-0.066340088107693,-0.04461976157701574,-0.02994804523346247,-0.049567150284745724,-0.022623892340855673,-0.06870866670282558,-0.06377542981803416,-0.06587502787921112,-0.049394414933188815,-0.030248274855630006,-0.0691505561182741,-0.05897450494286604,-0.03501198440939188,-0.04697540762533899,-0.051455028124270025,-0.0685080478304997,-0.03468961830394109,-0.061619640023633834,-0.04695117279980331,-0.044397629559203046,-0.06145040723683778,-0.066377515774942,-0.0808919751805719,-0.04436998350045178,-0.02253537380718626,-0.039603184657171366,-0.07372109717051498,-0.04184292640797794,-0.06846926845638081,-0.0736931314513553,-0.037331577330222354,-0.049163355256826614,-0.04198023425312713,-0.07100560026727616,-0.024769487251515964,-0.04929091345951892,-0.03222617819932056,-0.04704066858100705,-0.05407513836163561,-0.04240032739529852,-0.06378542605566326,-0.0326542834013002,-0.03716057727802544,-0.09267304126666859,-0.026986144954257177,-0.03971018869560212,-0.04943827234122436,-0.05634340295402798,-0.0032165157881463525,-0.06606133053181693,-0.047217586917337025,-0.04167832869710401,-0.025359653430699836,-0.06607311686773318,-0.034802988151076714,-0.05874525363110006,-0.049324550867639476,-0.06608910445473157,-0.0662304126215633,-0.056366404803702606,-0.06385356395500712,-0.06385356395500712,-0.02299522128772223,-0.06863645541656296,-0.05397708481464069,-0.034520682344667146,-0.061727434079931115,-0.056498264722176825,-0.04182655066191219,-0.04182007982193026,-0.06621212804620154,-0.061435004171729084,-0.029711131205048875,-0.04198042148279492,-0.04466205721562728,-0.04211182931012008,-0.06605320202428847,-0.056312510058842594,-0.06604142025494948,-0.05406537045286968,-0.066649140357133,-0.04481643949316349,-0.037337854090670586,-0.05651475919925142,-0.06609636987915728,-0.06848854854558595,-0.03749646730204113,-0.03749646730204113,-0.05918606990089174,-0.03943270976135973,-0.06382444289179984,-0.051248500100965606,-0.08312648363383486,-0.044820677276863716,-0.06366716997085604,-0.054223556689266116,-0.056606821396877054,-0.06393909138056915,-0.06154395813865121,-0.06873175075089093,-0.032665218070556876,-0.04461199839566834,-0.04446366226642858

Rotation alpha :
5.841061662749066,5.841104303445348,5.841110117186728,5.841077685738203,5.841166626971733,5.841166227424696,5.841182201965225,5.841274148882188,5.841347280097003,5.841452100157724,5.841563088641584,5.841622217969177,5.8416853914240425,5.841659838404198,5.841588862153114,5.841624562543825,5.8416092400965445,5.841662893134579,5.841711399719468,5.841675958201811,5.84168050498181,5.841714772079899,5.841661473717053,5.841622557254092,5.841527649212958,5.84151713585885,5.841661271542082,5.841708196633609,5.841736209353946,5.8417704564871995,5.841811326111619,5.841902092165346,5.8419429916336725,5.84197881586614,5.8419491437640545,5.841976214707705,5.8419605089936955,5.841963159386509,5.842042356547808,5.842095286475621,5.842167885109658,5.842220435262967,5.842229482249785,5.842225604855416,5.842227312254914,5.842253553473538,5.84221877541823,5.842240385974307,5.842298743482796,5.842364947548957,5.842367850050877,5.842332499941195,5.842321393653539,5.842312160405054,5.842283496578811,5.842387783184132,5.84245719440445,5.842488494755931,5.842508936621081,5.8423981965904215,5.842443286768576,5.842274903424411,5.842243804595336,5.842244290730556,5.842331833000868,5.842395115889426,5.842414409982062,5.842471750569943,5.84259877425959,5.842586573381061,5.842743646843971,5.842780970303864,5.842737942389465,5.842706665402312,5.8426825409451695,5.842770528254823,5.842909503877267,5.842930143404215,5.842924452492894,5.8429430859952,5.84306962816327,5.843054842733439,5.8431237748974825,5.843192638405663,5.843191979677234,5.84321514673222,5.843164279184194,5.843182747679554,5.843157072793092,5.843070359875059,5.843077379040069,5.843089205002434,5.8430189507305546,5.842950126176211,5.842923183794082,5.842948146382375,5.8429860389675055,5.842922382769815,5.842899996948188,5.842842182133951,5.842841790694952,5.842865974152275,5.842960515870136,5.842928518562853,5.8429266064255465,5.842963083801489,5.842968367170735,5.842960487865592,5.843103921043884,5.843160225202974,5.843127230294474,5.843156224029206,5.84308948676201,5.843107672440083,5.84322579473984,5.843230736677467,5.843210254202726,5.843279933577662,5.843165204956157,5.84320109471138,5.843136424139504,5.843116449174607,5.843139898805382,5.843092865932233,5.843116589359319,5.843089732589614,5.843112819778211,5.843227943498405,5.8432313971029295,5.84324232073825,5.843191149334312,5.843228384552988,5.843170431600451,5.843219461272432,5.843343129630316,5.843377519899168,5.843430720426453,5.843427420922789,5.8435186877533765,5.8436290510673885,5.8436394791592985,5.843709026983153,5.843773001419435,5.843749580439321,5.844397099734231,5.8422803874511136,5.841118798873563,5.841876058832894,5.843602186172517,5.845448088492622,5.847137766123414,5.848349703543937,5.849548033162028,5.851086509156433,5.852666109590276,5.856072442857069,5.8578231011735244,5.859661962169063,5.861257749021979,5.862542518881771,5.864014791972049,5.866001707467268,5.868071294443682,5.869643122619356,5.870757195960718,5.872192808607443,5.873864498694685,5.875341631258265,5.876769425580248,5.87843224519191,5.881928967789365,5.883409009125907,5.884803537273857,5.886005285664823,5.886913467342078,5.888073163808103,5.889941138514781,5.89180732787683,5.892956946998452,5.893303839390823,5.893576780677061,5.893553188382405,5.893189909447387,5.8926911323804525,5.892173330737958,5.892371260752514,5.892033797512794,5.891270556033825,5.890760937713378,5.890649663919007,5.8901885702529375,5.889422688993533,5.8888822601161745,5.88902870469568,5.889754252150324,5.890067428632749,5.889746040170038,5.889341137181191,5.888904813201775,5.887673365243023,5.887014706138469,5.886620001362857,5.886222007243787,5.885965892174543,5.88580813561459,5.88569684802449,5.886308498560279,5.8875409573173085,5.888650317107027,5.889495476866018,5.8909826478646234,5.893296756991633,5.896068785092025,5.900474390199775,5.903758433826747,5.907562780064741,5.91153992185897,5.915769308807948,5.920166994794496,5.92466775358458,5.929482073529406,5.934504166983585,5.939284565466811,5.944004157342216,5.948876823247141,5.954872256512106,5.9608389168178935,5.970576447412726,5.976607390608436,5.982912246985997,5.987514097855146,5.991355082930136,5.996526699743049,6.002362128844463,6.007404483964071,6.010381757381051,6.01272055798725,6.015790424721173,6.018241663883768,6.019656952489134,6.021439203975696,6.024260383770156,6.027395425496273,6.0283649078270845,6.0300829658702835,6.033841254724306,6.038073828232328,6.041725003497496,6.04577606908472,6.0503425243572035,6.054892230374761,6.059533390894305,6.064986985511893,6.070052132852419,6.0723817970632785,6.072256044514215,6.073509002957413,6.082357973999637,6.085916910426652,6.088497236929093,6.090275919963168,6.092485273444027,6.095403525912009,6.096733172004923,6.096321406908038,6.095890648321648,6.097376934496281,6.100039069294548,6.101552734111693,6.101546977597732,6.099012915128478,6.0911013421925935,6.091254347196966,6.090664876681511,6.08586017787094,6.076562612532623,6.067449885568814,6.0621919541956935,6.05917530147013,6.055883597782348,6.048283063502205,6.038772702302229,6.028946927093965,6.0212050164602795,6.017670522991839,6.002651028634133,5.99190497073443,5.9798059896816405,5.968736275045476,5.959927829591111,5.95596940581758,5.9559402807369235,5.95602335952761,5.956044800527386,5.956063406809829,5.956083328157021,5.956134609883207,5.956153559691822,5.956153388586541,5.956128397459859,5.956121271979783,5.956085465128873,5.956060447831888,5.95609037042404,5.956012308475077,5.955935060808922,5.955966393858555,5.955913514056528,5.955900020943395,5.955979515506231,5.9560989949110645,5.956117736567833,5.956133298698403,5.956247139424237,5.956301526139713,5.956347546348733,5.956428008650159,5.956467755150878,5.95641624931417,5.956390533947943,5.956412146871595,5.956401824618548,5.956321809468411,5.956295378709918,5.956357058513986,5.956337750526898,5.956361342290606,5.956389758916516,5.956434649770597,5.956378786042648,5.956272077102786,5.956292824232051,5.956326936120084,5.956310857800086,5.956287329220534,5.956302790361837,5.956388442835338,5.956405425124554,5.956501380201646,5.956509387731178,5.956470371952136,5.956397758512271,5.956315213232329,5.956173041561826,5.956148853674919,5.956113334524687,5.956098869647203,5.956197542919837,5.956239816407268,5.956243222253694,5.95630402860866,5.956300965574267,5.956229294171147,5.956245342458635,5.956230192085438,5.956170905322271,5.956193407160226,5.956336597586964,5.956371761186717,5.956357276644446,5.956362068235012,5.956393970514041,5.956395837450914,5.956345229462647,5.956443328818115,5.9564544615330695,5.956483643233724,5.956475446305604,5.956511351917862,5.956592172203802,5.9566352830159595,5.956697499097929,5.9566895837815235,5.9567009682248795,5.956705823527928,5.956747736125829,5.956701819284474,5.956745370479284,5.956850947496317,5.956817314476748,5.956838899829782,5.95680530695339,5.956866587659057,5.956942080788394,5.956875956767637,5.9569174920533445,5.956881315024933,5.956898745204599,5.956916307770874,5.9569204159452305,5.956989067482686,5.95690510901854,5.956973517354063,5.957007947589255,5.956967503084391,5.956941037975529,5.956946065446501,5.956894166968492,5.956960347233428,5.956952309407417,5.956950798494742,5.956953863236893,5.956957926126641,5.957017210542892,5.957107296812344,5.957154113432029,5.957133298699304,5.957106498034235,5.957078703373308,5.957055936898611,5.957045921977485,5.957048490992357,5.957139929826999,5.957155702282623,5.957084062219461,5.957033736841834,5.956992779498592,5.956964719059283,5.956886316866845,5.9569597688893055,5.956943656294019,5.9569413338110175,5.956951993916547,5.956912151095797,5.956882801067859,5.956828732936385,5.956807050746712,5.956785426760036,5.9568140553621145,5.956723778336823,5.9567692586064,5.956728218221064,5.9567937318359325,5.956809336504489,5.956787746108298,5.956810300586694,5.956789824416855,5.956830736236705,5.956803567382032,5.956744787746079,5.956741972924816,5.956706189348651,5.956704278944575,5.956651323835645,5.956733493072017,5.956723688896748,5.956770650152221,5.956712930481472,5.956734537646435,5.956788938641777,5.9568176630473255,5.9568653244054595,5.956894379504878,5.956886422943255,5.956833555569433,5.956868023367556,5.956972208147978,5.956941408368881,5.956941408368881,5.95698084743653,5.957066166310847,5.957070266926721,5.957091349271085,5.957065083156654,5.957020042130781,5.95702340708559,5.956926214612527,5.956868025908594,5.956803785218285,5.956863337868317,5.956829922866882,5.956833855706264,5.956887770702457,5.956941168257088,5.956900530071377,5.956842263172677,5.956903240759564,5.956953260507603,5.956808469207188,5.956887791063576,5.956937830057451,5.957011111450204,5.957057856006692,5.957117605530688,5.957117605530688,5.95709777563982,5.957045185093894,5.956910907965241,5.956877129024501,5.95700114278094,5.957012796212243,5.957016995818997,5.957002457433865,5.956918011688506,5.956985349768627,5.9570592594553124,5.957033741823688,5.957056973007576,5.957097904749393,5.957108419084828

Rotation beta :
-0.01096688914185712,-0.010939016895234292,-0.01084216074300254,-0.010717413601018928,-0.010896813129882658,-0.01098577213854524,-0.01094370661937692,-0.010925492510508807,-0.010972899682952725,-0.010992614570751288,-0.01113639514021681,-0.011000490153948371,-0.011010774628058575,-0.01101435869348105,-0.010945424948575104,-0.01093357972675656,-0.010967612017994927,-0.010944388548556745,-0.010965080719958548,-0.010869070119024599,-0.010885898306176452,-0.010855041422968375,-0.01083229205877935,-0.01079967498846765,-0.010751069015109485,-0.010732117099814555,-0.010670273910387511,-0.010676498343051418,-0.010614419500290887,-0.010563050427479521,-0.010611283387443125,-0.01060757660948845,-0.010644615156931318,-0.010604659789501049,-0.01047269066342148,-0.010321383309291332,-0.010208779742096042,-0.01027901296834409,-0.010434242083491283,-0.010539567729728319,-0.010504418942465787,-0.010570221115943041,-0.010666404836384204,-0.010625434325426501,-0.010523149554836837,-0.01038914744004957,-0.010429006971118255,-0.010424064090419696,-0.010447949326832011,-0.010422670472604617,-0.01044526507012776,-0.010435784704633704,-0.010335409370695273,-0.010274222193051987,-0.010304380437440136,-0.010403262908025955,-0.01028942624191352,-0.010124308779856594,-0.010077149879210351,-0.009970773512262377,-0.01003474729790125,-0.010076931779970561,-0.009965502447529116,-0.009915000796777103,-0.009907636843698357,-0.010004021760767463,-0.010063435181207971,-0.010063110393628581,-0.010024463126973148,-0.009929774507035251,-0.009998467480147065,-0.010088166652185678,-0.010180199833885926,-0.010184642035132363,-0.010169494044422333,-0.010192200852128939,-0.010341887565569679,-0.010373501371499864,-0.010447325777164522,-0.01056906993446645,-0.010556868542804312,-0.010354454688505524,-0.010336451371552528,-0.010455415055197046,-0.010458191075201958,-0.010295621701660353,-0.010265887966572849,-0.010233049759650224,-0.010181981682981895,-0.010162930407108816,-0.01020978102500995,-0.010283097470111862,-0.010141228378529526,-0.010118784880379643,-0.01016139892342107,-0.010144868360851182,-0.010245755546469407,-0.01020420090850261,-0.010173617630965916,-0.010173843887521508,-0.01015698878764425,-0.010152613147829243,-0.010270307487494974,-0.010193063906111086,-0.01002643385995515,-0.009892534750971961,-0.009901138874000431,-0.009978676888597736,-0.01013619458519908,-0.010204953279955662,-0.010210888536013391,-0.010247058587864606,-0.010142570623351442,-0.010139682994744301,-0.010193353210078467,-0.01012417606104986,-0.010097324391704994,-0.010227389692404007,-0.010214469112970305,-0.010173223988659363,-0.010174783977939843,-0.010112447448822053,-0.010035323089176575,-0.009876185367212865,-0.009902040181640568,-0.009784862460852306,-0.009773737979487638,-0.009803850520514376,-0.009736141753754783,-0.009659436806025986,-0.00964546354331965,-0.009586128912409703,-0.009648676140745912,-0.009659207119147598,-0.00973963647423634,-0.009771068277819763,-0.00977069249852791,-0.009871608971913822,-0.00987226370736026,-0.009821851533989562,-0.009834222942452578,-0.009996633156443308,-0.010023535977375871,-0.009976132394812784,-0.009682867952608068,-0.00987561393438068,-0.009949802227477975,-0.010103049220994937,-0.010252306237879812,-0.010471478896805055,-0.010848399151989504,-0.011249713390099116,-0.011562739877463193,-0.011940339554730494,-0.012533670753707407,-0.014087306915832166,-0.01501547428894755,-0.015881012196699837,-0.016253084866953687,-0.016365105337032927,-0.016370553131805403,-0.016859285563859034,-0.017299578012697454,-0.017181617397545743,-0.017349377300683467,-0.01763782572765934,-0.017932758059301387,-0.018143075746213166,-0.018251073329830343,-0.018385041279859356,-0.01943070781380018,-0.01956963409915242,-0.01966924651194851,-0.019769190970333247,-0.019985710171408762,-0.020184855436475777,-0.020325254716319404,-0.019816539285431804,-0.0192921947768537,-0.01878502216491348,-0.018902879753954216,-0.018718138707625485,-0.01848781029544117,-0.0176040224368707,-0.017708624323081727,-0.017391885429367766,-0.016951473282287747,-0.01677528870678007,-0.016739958929197996,-0.016569910198657882,-0.016021126169435164,-0.01581955253486071,-0.015718612084271295,-0.015823479389503535,-0.01575385090941113,-0.015495081106326357,-0.01477699484184835,-0.014472469801670863,-0.014527505913471463,-0.014388902133895994,-0.014502012823471725,-0.01480109018061043,-0.014756769095819484,-0.01429307210273491,-0.013969370244903412,-0.013737217468844405,-0.013796518080424154,-0.014340165904098015,-0.015070156059831174,-0.015405184792048752,-0.015703486923264436,-0.01591470945599259,-0.015931440081347597,-0.016150579095475612,-0.016285706935891178,-0.016213673445230763,-0.016116750914856308,-0.01625725781527712,-0.01640215641078643,-0.01655469988700079,-0.016616968966742,-0.016619041900646794,-0.015665948334189432,-0.015718910331226733,-0.016241231734465553,-0.01646973236605974,-0.016585887182388025,-0.015694448505804297,-0.01586353615025111,-0.015949161428511698,-0.015843257049467947,-0.015716812390757392,-0.01578125009694056,-0.015921077419021358,-0.01610160603943547,-0.01611337349667895,-0.015946985046102723,-0.016040819809035,-0.016180210394458956,-0.016205582875431484,-0.016172882232466938,-0.016225932101225197,-0.01585150184349739,-0.015991290293044108,-0.016149069831178454,-0.01634372717515602,-0.01647665358344432,-0.016341241362197965,-0.01650395735291791,-0.016585364110532803,-0.01669943530007864,-0.016747954018498105,-0.016837119394147004,-0.016805533382187324,-0.01703415738524675,-0.0171525386285422,-0.01730168954966996,-0.017423620529734805,-0.017659620160484536,-0.01777848885953878,-0.01788725390008341,-0.018053705743731788,-0.018187682027318377,-0.018499852664400303,-0.018588387723890633,-0.01864634204255284,-0.018687172351492535,-0.018859524263041574,-0.019114763835816857,-0.019292802282417698,-0.01955946336276725,-0.020144025253768044,-0.020253656668454176,-0.02050998765085746,-0.021041435536457858,-0.021600450506173118,-0.021952716159740062,-0.022096151292935903,-0.022262656755146167,-0.02299785609935589,-0.02367041870212725,-0.02430477458739477,-0.02489953620236883,-0.025302139674801438,-0.02559596911130346,-0.026429329507236896,-0.026809361923038635,-0.027228026360233484,-0.027567338014241292,-0.027947552415024876,-0.02822156169771911,-0.02829269471577127,-0.028329874225449674,-0.02841249919615487,-0.028388080692326043,-0.02840157205121396,-0.028426813020871765,-0.028433665194053517,-0.028428356320277955,-0.02841749310393736,-0.02836321473661219,-0.027195791577769305,-0.026755548528023032,-0.025647758102029166,-0.02509460857032664,-0.02432904591392232,-0.023716227180982857,-0.02343932222917272,-0.02293379905221243,-0.02277620587511912,-0.02247901921192206,-0.02230289917571339,-0.021956069180307253,-0.021913924517291673,-0.021346190634326814,-0.021222276835049604,-0.021111511913854134,-0.021053562536677787,-0.020753503688773347,-0.020618111150015037,-0.02052014126600153,-0.020443197057672377,-0.020312940183986956,-0.02010161624538112,-0.020199860455496186,-0.02002146807388919,-0.019838906465209978,-0.019719409505147157,-0.01956636946822413,-0.019511874551187743,-0.019490740668868363,-0.01939144656927382,-0.019275812471682703,-0.019156468901563462,-0.019033924747515408,-0.018866700688100212,-0.018684092168188744,-0.018684487506721213,-0.0187573866784402,-0.01861514174385198,-0.01857655029445526,-0.01843763897765849,-0.01842895285941389,-0.018210284527479418,-0.018157730491800732,-0.017999074893671013,-0.01791414242839357,-0.017860010583277568,-0.01779901119865573,-0.017705986281920928,-0.01776772478697931,-0.017716079212298997,-0.017615519885934586,-0.017478647989382895,-0.017342086394062588,-0.017203062756950115,-0.017168488434447588,-0.017246752231880373,-0.017191293987619934,-0.017045101883122853,-0.017009664483351467,-0.01713020452779574,-0.016988733644469758,-0.016936827234995788,-0.016958529324677504,-0.016988026006126967,-0.01693094557720359,-0.016943342776678093,-0.016903448039491908,-0.01707121401855236,-0.0171062756646189,-0.01712720446112344,-0.01699951098318589,-0.01699545075478522,-0.017031594137636167,-0.017123047078442734,-0.01698073871099119,-0.01709376307772122,-0.01710120241714213,-0.017046287609355452,-0.0169386676766553,-0.016886237939935222,-0.016917836681093666,-0.016955163191525142,-0.016869380314571043,-0.016902434861957142,-0.016855853359931193,-0.01682012440953936,-0.016842737465117705,-0.01684792368021892,-0.01690970025692802,-0.01681762564058464,-0.016900135193305944,-0.016848376166037835,-0.016808587932771814,-0.01681651043132609,-0.016898820301933386,-0.016812744388407134,-0.016717063373995724,-0.016638521743765258,-0.01669474902707415,-0.016670702687792294,-0.016651576029637804,-0.01671746778793631,-0.016819551091595695,-0.016695662467971766,-0.016762474027536757,-0.016716496152423984,-0.016731909225463373,-0.016637588754480646,-0.016611903355636778,-0.016555403405362393,-0.016531210136758942,-0.016530840917419187,-0.01647041631135612,-0.01642293044919775,-0.016354933692262347,-0.0163080992912341,-0.016216913620748633,-0.016222322257028292,-0.016173842681819716,-0.016225919663803774,-0.016282139499759252,-0.0162613264841477,-0.01626858866358327,-0.01621703656875328,-0.016109085049544596,-0.016116058655197132,-0.016197147372163764,-0.01618310276486188,-0.016163021541365882,-0.016180903701912986,-0.01607121664433146,-0.016044266032441624,-0.016073007538142208,-0.016097626716778907,-0.016061165561599474,-0.01599761162069527,-0.015921025223404627,-0.016004487487553808,-0.015984472083138964,-0.016032187297285342,-0.016046341283916677,-0.016060945601777517,-0.016269678064726314,-0.016273065632985168,-0.01628904214221867,-0.016318253885424485,-0.016313394665458673,-0.016285180507629317,-0.016376935007175127,-0.016424803936628516,-0.01641833251451911,-0.016449361714559924,-0.016475459481195304,-0.016442234319599378,-0.016547400541599658,-0.01657435124902625,-0.01657435124902625,-0.0165434778793605,-0.016580882706919056,-0.0166055715751846,-0.01664707181012942,-0.016453075434696998,-0.01646753144358028,-0.01644742768797949,-0.01640283177336772,-0.01640958033221828,-0.016457076468939683,-0.016493758850158597,-0.01647347091236144,-0.01639688180139647,-0.016377578916763967,-0.016349827913373544,-0.01626205031783307,-0.016245166689630466,-0.016222843966910986,-0.016305716457208737,-0.016332724852344365,-0.01638750218112642,-0.016548723904691223,-0.016588096246406742,-0.016608348910107477,-0.016515537857584365,-0.016515537857584365,-0.01643894746993974,-0.01643012253041348,-0.016387003662853318,-0.01635658274656632,-0.016419065133741716,-0.016407389520759257,-0.016347552136667665,-0.016208096219702803,-0.016136739884876336,-0.016157516843114166,-0.016150690790202163,-0.01615460866382304,-0.016140452317484545,-0.016038751164596493,-0.016050411149274423

Rotation gamma :
0.003945842141110866,0.0039179391360848696,0.0040757144182115915,0.004222416411338276,0.004315135117862813,0.004387896509308678,0.004289646019847131,0.004164037687338724,0.004036878566777857,0.003921483371303626,0.003715453602341441,0.00371307960652277,0.0038462523023193146,0.003981647355475355,0.004063788330788174,0.004014488660356016,0.003958669634284201,0.003906577206486647,0.003926144896749584,0.003913503648781637,0.004012734284047681,0.0039181920878305285,0.0038915280975587926,0.004033378875804073,0.0042428925621435,0.0041343164518875,0.004031198959066147,0.003951227951498958,0.003983764403752216,0.003972759796940184,0.0038930905379403803,0.0038483943476712275,0.003840102737744011,0.003939344291460156,0.0038420201838636043,0.0037838539571533694,0.003927206830748959,0.003909676666093385,0.0038945277368484525,0.0038015178698892166,0.003556930091230028,0.0034667323605642618,0.0034462242322741625,0.003530320155184255,0.0035185117794965222,0.003531405692376852,0.003623318873464346,0.0036907508115676985,0.003642367983356294,0.003790363880778102,0.00382430437108099,0.0038844712556858263,0.003914477960596974,0.004055893124943922,0.004124770423254449,0.004158340968789543,0.00409009589814471,0.0040182451341832385,0.0040471504403225035,0.004278727770474398,0.00423085992186135,0.00432827552928621,0.004349845647160876,0.004336315506477303,0.0041695070816817606,0.0040672967960207465,0.004062210501139479,0.0040685669907756334,0.004057249087948083,0.004117672635999982,0.003953002979124178,0.0037800054842996923,0.0038359294021427723,0.00381505835658282,0.0038864958534494585,0.0037851569022260773,0.0037115079257118992,0.0038625301744936403,0.0039488406987838905,0.003837151859449381,0.0038282261020301284,0.0036667815423311574,0.003594683098373765,0.0035131738771526683,0.0035363670319580828,0.0034090832843215665,0.0034431836826665225,0.0034083746959079272,0.0034533030562200243,0.0036518939088706335,0.00377662359653834,0.0036749717625685217,0.0036409742802570593,0.0037262033990248314,0.0035931674508639247,0.003634781624006375,0.003701778045727649,0.003730245787507731,0.003526905492909615,0.0034977881126321,0.0035715860883946708,0.0035398677693881065,0.0034940319789829146,0.003529363640877352,0.0034136510486426964,0.0034581410636132966,0.003421006835619291,0.003347969183734683,0.0032296937005206914,0.0032613792398700626,0.0032018945539833673,0.003091372807443932,0.0030702136469356904,0.0030863724732175294,0.002958083519876302,0.00299571514818322,0.00302419825622287,0.0031613041978389663,0.0032125708676924054,0.003193099601432106,0.003162464715239341,0.0032353072261060985,0.003255672455910229,0.0032052228418746843,0.0032121671921850736,0.0033067726667989194,0.0033601587219086516,0.0032534862282034213,0.003222911413792687,0.003315768159046044,0.003456265050408069,0.003576595884091892,0.003600787878858451,0.003669015819688609,0.003576321509767185,0.0035588040395534808,0.0035120676438196306,0.0034186881997493646,0.0032985174253300975,0.0032345452889471927,0.0031941274382343956,0.00310991229078821,0.0028918381980256275,0.002783682712501697,0.00317132710285283,0.0029434147377050833,0.0027273895353459744,0.0025024949656362767,0.0023237450885349948,0.0021155221107959717,0.0018960200590345943,0.0016986576698897794,0.0014558484784495073,0.0012367034818394737,0.0012825187350657167,0.0014043582001472623,0.001397059906012067,0.0014616179483713443,0.001421360624217845,0.0012397969067523247,0.0009958518757118597,0.002633086838042204,0.0030106406890579107,0.0036831433098284934,0.004069099539360654,0.0045161282560079756,0.0051621134574407705,0.005543677632265029,0.006123180690887161,0.006434676894394203,0.007428936497954227,0.007569278010502606,0.00840487664617744,0.00825796982831726,0.008185277568855367,0.008134822357973548,0.008167031685607598,0.006968394370588022,0.00639605641854219,0.005899225970959388,0.005749880526366753,0.005713205660884212,0.00560287165273612,0.005728480392309463,0.007077557119334761,0.006975285591153102,0.006733292477452594,0.006171981467024749,0.006366844217791437,0.0071484996667343275,0.0073123200550231455,0.007248609388748453,0.007577973797438411,0.007821447785578427,0.00791408867615825,0.007467236716039638,0.006932511629559593,0.007154371169938245,0.007408515543426021,0.008731896568856617,0.009149449332292444,0.009436495598077669,0.009838870126316587,0.01091994775456251,0.011500243547086788,0.012155539405316686,0.012045781040109553,0.013217161607316629,0.013219541976645025,0.013353170268990426,0.014650488444813172,0.01463824558068485,0.015465894429963,0.015614337874562437,0.017288615405829738,0.019785991841916283,0.02262751825957772,0.02431844740418434,0.027043296908600675,0.02837238410051005,0.02993654359532643,0.03037390916111303,0.031198979853989506,0.03311833430068175,0.0339706929488892,0.03387075802648878,0.0338779272306321,0.03314818019223243,0.03310134497340608,0.0330772792819798,0.0327207521483115,0.03256838403163542,0.03263484682923957,0.03270610776396002,0.03257022064987938,0.032370394561452895,0.03185353514812203,0.03185306667157243,0.031064954689291564,0.030671028299429012,0.030704784543670736,0.030503545248483237,0.030711314682179615,0.030744572810619968,0.03181815406191255,0.03163949033513955,0.0320587071376128,0.03294765144690493,0.032481215863144015,0.032339674630866046,0.03231951016551408,0.032236577300508704,0.03202078552101839,0.03181026777023939,0.03229279200021163,0.032386298874115246,0.03240647472900021,0.03248114675202928,0.032457036401087505,0.032619463245414995,0.03252740843563777,0.032500694392829904,0.03233289275079432,0.03260574324843902,0.032604471297231714,0.03274225724367017,0.03260755539164158,0.032495111046344165,0.03241525483421872,0.032390395981047114,0.03218809178389897,0.03174903330030613,0.03143373648604769,0.031271845587516334,0.030860818281773856,0.03047933177329905,0.030565293283116017,0.03035595431418405,0.030122728645820333,0.029979242527627535,0.02965607584305178,0.029176758231457416,0.02881089450635514,0.028575542721681387,0.028410888060647753,0.027682559904103905,0.027334620866186394,0.02686587324799498,0.026361087090473453,0.02593745666989553,0.025644093314894405,0.025623386183092605,0.02559881829676223,0.025560552040284217,0.025584228699097298,0.02562755709917067,0.025608332017108423,0.025549830132797203,0.025509711293959687,0.025538772393744837,0.025572145755784162,0.023601709673835812,0.02254739279415246,0.02104808075699335,0.020578567265194296,0.019280345942685576,0.018167819780814966,0.017601833661269613,0.016651941759175885,0.01611720647637318,0.01538379975750264,0.01512114083265536,0.014615754794839396,0.014183955779117796,0.013133014369490575,0.01287264286497439,0.012480008580592308,0.012301651372170402,0.012029191442540391,0.011814956319588166,0.011715125067146804,0.011497533476363994,0.01141215182582669,0.011025511166173776,0.010883094958033083,0.010614847798147099,0.010227208170462599,0.010070867589682187,0.009900992806100779,0.009724582222208292,0.009780060012309664,0.00952602935357897,0.009388537190541515,0.009289547558588981,0.009115053029281275,0.009069237711393424,0.009013636091954986,0.008980540503611962,0.00866034684889272,0.008465571815433283,0.008458409385288008,0.008377513513780358,0.008428572618594452,0.008483297888317193,0.008278225575593759,0.008171074002567624,0.008134252219591107,0.008062003401003168,0.008013267619204902,0.007896159458562594,0.007794697683581113,0.007707606032266013,0.007684798686533439,0.007596712833629352,0.0075427037711971855,0.007442136862380697,0.007297602149032418,0.007149902624855642,0.006985062993827027,0.007001227571061481,0.0069842266661452376,0.006917378139531456,0.00674136144077551,0.0067964643068450774,0.006659761341429611,0.006506935496287997,0.006414037180506944,0.006334204614344183,0.006256435034691685,0.006099846984699921,0.006092382123429362,0.006142426338506081,0.0061561530115653955,0.006173254778961517,0.006072293609283639,0.005844725236919867,0.005881857625170471,0.00585662335736221,0.005776400043089163,0.005755667803482938,0.005696986038955339,0.005665833324060201,0.005688430748448442,0.005813343726444466,0.005761325189189371,0.005671816240923151,0.005601798574339173,0.0056192203570291765,0.005670212403175156,0.005648787918062408,0.005654143144090051,0.005666542644725678,0.005690852395215714,0.005641496733186112,0.005623254834032306,0.005696822732247385,0.0056837330770094195,0.005730960287888514,0.005602449586062429,0.005703694767105268,0.005834326097898643,0.005754161840692565,0.0057455708467929675,0.005638491670771548,0.005414967780840725,0.00541276831199441,0.005346645347861961,0.005423323851114036,0.005362396453761697,0.005265083710662052,0.005198809385715838,0.0051925318205068675,0.0051582554715046015,0.005152872060742221,0.00525149153583086,0.005322374910755864,0.005345823373174571,0.00537604221980761,0.005444138393297105,0.005420640024169516,0.005369293250630308,0.005448682643045745,0.005451744216966416,0.005523487366006509,0.005401760864008318,0.005383918199428798,0.005452757742530842,0.005439350545903245,0.005393421347103069,0.005425683721636683,0.005404159330252715,0.005386570511300033,0.005352510804325284,0.00531796877606503,0.005237614493740847,0.005191024116982626,0.005243307699221373,0.005182844388677368,0.005289299271198964,0.005367800823652315,0.005368734764364717,0.0053022680650496035,0.0053524465933390926,0.0053398892111605105,0.005119746450900519,0.004997224905430508,0.004883024676357762,0.005005253227827705,0.004966638827640348,0.0048907594792240066,0.004835008251741344,0.0047591249589798166,0.004786678651913672,0.004817858616981856,0.004837513959347682,0.0047744900411557795,0.004667863852135768,0.0046875244031980194,0.0046875244031980194,0.004638009864553539,0.004542286808903738,0.004566818821759257,0.004331189871952028,0.00442874201891203,0.004560682132946053,0.00447075521795729,0.004486922896700328,0.004487664162907646,0.00456930854066201,0.00441894695091212,0.00447141125815861,0.004482872011839912,0.004407372850958921,0.004494651763843537,0.004489918073834235,0.0046055157487854955,0.00457242590890264,0.004594579654737972,0.004812802261347953,0.004695024492257639,0.0046350256166600955,0.004599807200836538,0.004480392650148891,0.004434025601021221,0.004434025601021221,0.004536918548018751,0.004541966638241597,0.004712645930647708,0.004680050409903531,0.00457276244846794,0.004645749591316334,0.0046842991627306626,0.004809340430014348,0.004817308748298869,0.004747744261699136,0.0047509331706759,0.004848043895915723,0.004813636269619593,0.004637067648271155,0.004625361653876511