Acceleration x :
0.057278898272430524,-0.10597630281820893,-0.21279543140241874,-0.08904964487142861,-0.0337449966808781,-0.06185373647387605,-0.1004240115864668,-0.05766505261238199,-0.05715774697763845,0.011357046829123281,-0.06518152005656157,-0.1020606272118166,-0.135966878869012,-0.08927241164348088,0.0685367076694034,0.04647414357231464,0.04425137122261803,0.1190296264629811,-0.00483288406614447,0.04324071917561814,0.014379309268237557,0.04396641223481856,0.042810090939700604,-0.16087352098533883,-0.1142316607298795,-0.12452643378097564,0.07862345485985278,-0.009481957689224508,0.03549999168862123,0.13507964770570396,0.15628392817275596,-0.0023072700120857917,-0.09773877282417379,-0.21360333198551087,-0.2668378411048092,-0.23360406361538916,-0.07262353402504232,-0.008825921487130108,-0.12314315359587781,-0.3336888972422108,-0.3089179920684546,-0.05203127080937847,-0.01736965589885949,-0.11084263021294027,-0.04071187655143439,-0.015245616374525706,-0.04440200434022117,0.04850052570023108,0.05962212323059793,0.15793463625553994,0.07648816443078685,0.021099180691340005,-0.04869930880849715,-0.07656752241046633,0.03914770054121036,0.1714168345705606,0.25568587583564223,0.005254941978183342,-0.044475718030403365,0.09218348591774701,0.02216631673250813,0.03146162585089914,0.028523738918232264,-0.014057208024268037,-0.0888980162399821,-0.02570640277544735,0.03514057465854566,0.2878313831643201,0.1695107269546017,-0.04084360860574525,-0.07118528594942763,0.1350355802351143,0.11131936261290684,0.026576114265085195,-0.06273450593035668,0.13335482407393864,0.13998027009568176,0.05604510956062004,-0.12570427278815768,-0.12637437233575619,-0.07149002734993118,-0.051694901294750156,-0.20986659314259887,-0.09849046797431074,-0.003732218216832552,0.20661409415267407,0.10452432304476388,0.01622055778732756,-0.08715367505699395,0.03187915942651452,0.04967946981911082,-0.10570059114936739,-0.14458686884199268,-0.028716430212429256,-0.025904968971293418,-0.12620603003152644,-0.2545964000985026,-0.22301217991439623,0.17000881266985088,0.24765786953959612,0.35681232746988534,0.1576210402617231,-0.007495905859229969,-0.14399523222493008,-0.10153027406162582,-0.05950945663636084,0.0372746435281937,0.015917196634801803,-0.09249185774717479,-0.5625451452760025,-0.5600589179508387,0.06966010394245385,0.2854361220582388,0.551520149121061,-0.005976041060657007,-0.459311053838022,-0.4936658529803157,-0.09733192732264287,0.0420538885778049,0.21962717711860313,0.08360007422864436,0.01548447119827615,-0.2172993186929263,-0.11379780849041417,0.3760618023410439,0.43135896134488283,0.167308029278554,-0.32955515843834726,-0.520281290042214,0.40847653679884965,0.48525819971691814,0.07733131442377343,0.0735588740798179,-0.04424601919406559,0.023307120798085813,0.28037352317273617,0.29967456383435054,0.10187400033222511,-0.0375052693797159,-0.08572085664174518,-0.0930175347222481,0.10182347572138532,0.28670957606015723,-0.10170926562403328,-0.1300173684806097,0.04233171913849655,0.1796600362535566,0.22166125849578527,-0.09716699168505147,-0.023539253620104863,0.03153942891102051,0.1618448502355255,0.19862961647110058,0.08283424095530062,-0.09557445266344584,-0.11202643317002803,-0.0950207917029038,-0.236725921962969,-0.21917183456653727,-0.18025157240591944,-0.22791409007916225,-0.6739686441168189,-0.8273200807679444,-0.004296068638304132,0.28758206631205974,0.2161243018304929,-0.025301890794897915,-0.3203244618216529,-0.21621957889851182,-0.09093358632135204,-0.05270453499502036,-0.13577804176602512,-0.07266080642866436,-0.07841383069716394,-0.12157846156242302,-0.10495799262113868,0.11590520169897936,-0.2857966807326302,-0.13954570547016337,-0.06975227117135654,0.012906162267533362,0.49929129164665936,0.5470971450470388,0.4134639698226005,0.27845598084731027,0.23213729726476592,0.18164472553106023,0.44650279099550094,0.3270189544916153,0.21794545284304767,0.1236882750569377,0.09413002600879408,0.21009662077249958,0.11074097820306196,-0.07917632123595103,-0.2961437958923168,-0.34735969519820065,-0.32770679062530395,-0.10634824140314011,0.08432863509836606,0.06777391116993967,-0.3501209400724619,-0.13820158825167453,0.05410095322290435,-0.06583093757573515,-0.10342000593151897,-0.27608810093849895,-0.25246483142990617,-0.14338926568841562,-0.13507098947521298,-0.11513909443099983,0.14112543980912304,0.42185609672330315,0.3877094604389742,0.00720715661230206,-0.17670805458016692,0.28748867067387324,0.5076831993516534,-0.14468934283577836,-0.3793681504100561,-0.22426420753579585,0.18636795466067269,0.7052468488253653,0.5856023053344339,0.19180709524098782,0.09070072741354815,0.058658337966050016,0.041796543682715855,-0.06891680216132663,-0.24486451249402014,-0.4903034273425117,-0.7278045714616775,-0.6808521930854767,-0.5577727067098022,-0.4121242456514388,-0.18188900088202206,-0.18410260354457422,-0.15664001160142943,-0.15714834471605718,-0.06381247845937033,-0.050920533088501536,-0.3172504246711731,-0.6427715418204665,-0.6560192189935594,-0.7956908706646412,-0.9364918186265975,-0.7115802165653556,-0.5175418551409616,-0.25598537023887036,-0.23448786071259528,-0.1381214174212422,0.07390650477397721,0.36951691074222326,0.24907670509526506,0.09755635632881894,-0.004936555073995259,-0.004959100265943562,0.2700795081734657,0.31218872083481397,-0.1259919671557378,-0.08738251537680626,0.19042923101652412,0.10098061342276632,-0.6280016965813935,-0.6465940957833081,-0.3151293408639729,0.35349856327939777,0.4149385724198073,0.2946817057168111,-0.11000492814662866,0.4252433645414188,0.14216044541266745,0.02971143488243688,0.15361880061673,-0.20159411056619136,-0.5015110135227442,-0.1212280680890195,0.29707753307847307,0.3255265605093911,0.2996467625119723,0.21675799662414938,0.08860053113074973,0.08035353005547076,-0.20358238004026932,-0.7627206212159245,-0.8991380203314125,-1.0472121011015028,-0.5894334444625303,-0.5954284470936283,-0.05144607306625694,-0.233927706079185,-0.26082634399663657,-0.2439641113218851,-0.03841286976090632,0.3358757032293826,0.09225450532734393,-0.36807215529400855,-0.0457407147312304,0.42867779596950856,1.1362222907453774,0.8236786555256694,-1.0021252243362366,-0.8329127131432295,-0.5273683622263372,-0.49008163781799374,-0.5919527703396975,-0.707165395797789,-0.7437689602475613,-0.5007806168889627,0.5162150269839912,1.6820353873312472,0.8449798022296279,0.024184268958796745,-0.1892496658431366,-0.5262791787501424,-0.42186391470357776,0.15174854063228704,-0.5138327714899554,-0.12240367860649712,-0.013358178068062988,0.12318003327385521,0.3324984088160097,0.27992013511573893,0.10802132571451366,0.03584513131488347,-0.07123869663709774,-0.05002638812721707,0.11177351785488426,0.037335216892301105,-0.24276259004501624,-0.3736232135498896,0.19148162614628672,0.3840957999864593,0.16094843111876397,-0.10211515214433893,-0.06128951302012428,0.08884885246916674,0.16280364879770204,0.21121071949424222,0.16365622877273708,-0.05445462549878284,-0.059450118531403126,-0.5816640160374343,-0.5486747330946847,-0.35140780154522505,-0.11901706837550736,-0.30722119808793064,-0.4148451950479299,-0.3386358886577189,-0.0369969613812631,-0.03097801618557423,-0.048222480510408054,-0.11186950730895623,-0.9361153865296393,-0.9850134190808981,-0.30856603682562705,1.0288323948021978,1.0857127313442527,0.4061342479890212,0.12391415623468346,-0.39767497413624076,-0.48513190645612775,-0.5892709108445793,-0.6303936332192271,-0.7309178081113845,-0.5908848853798583,-0.548155312330462,-0.3759511815734207,-0.47808147648796434,-0.6452007417287677,-0.9417140833195299,0.011418649956403532,0.7678408137738704,1.6705913255140183,0.5120317864825948,-0.35048451268784697,-0.31031375727578997,0.009045025293395155,0.3199299095461145,-0.35520416162088514,-0.6839397107720374,-0.9463025070883333,0.04282259879482444,0.5584058169815689,0.7209468875866383,0.4108051624095067,-0.24656406468721107,-0.3128737439569086,-0.5766069518435746,-0.6181598823290317,-0.2772356818047352,-0.13950328196738845,-0.6766373518694192,-1.2623790656745433,-1.1345721854507922,1.5854421221472321,2.528687579752505,0.7491260303013026,-0.4029604767911136,0.3210324274279177,1.5940657197162509,-0.8268515134081244,-0.8268515134081244,-0.8336939266487956,0.0038120043131304555,-0.12951879870817065,-0.8006330763071775,-1.5558156301684676,-0.6175752143088727,0.02819397039103787,0.07522304899895098,-0.04418283146447502,-0.02207891244369093,0.280795949835889,0.33758192262537773,0.8505751380186527,1.1307784191910177,0.10365067288223653,-0.8048589503739029,-0.5195036932658403,-0.29367055591288954,0.1856034182952717,0.3759952033782378,0.13757977569205684,-0.0900607307432685,-0.26072025327365844,0.2235439852361567,1.12752423970066,0.1283609613094013,-0.508464230194129,-0.6717275141265243,-0.2749093212164007,0.6364020067885517,-0.26479853556323796,-0.38537411282658574,0.15765273230792953,0.719874509114772,0.5486143812095746,0.11059175159125588,0.6492407378345727,0.9110573715101927,-0.7116135343130677,-1.2582241379521786,-0.29182500111144033,0.7648860556215047,0.01165104079003795,-1.8988722578778863,-0.1368866423287429,1.0620573496643453,1.3594037080131471,0.37508634490501136,-1.2080182376727462,-1.1490083417560903,-0.3128151091048494,0.6704367436636239,0.7351126294527203,-0.3071269439332187,-0.9255128170378506,-1.07633217792809,-0.7608653487380593,0.7448164965391159,-0.07944081739103422,-1.0339429427489637,-0.8967699029605836,0.018196689299040007,0.8943908258043229,1.067772147114575,-0.47078372069522734,-0.6699052671354263,-0.18813659003470093,-0.011248554086504737,0.42070290810018773,0.4654137546272948,-0.216399173249118,-0.47884424102138723,-0.3689029435623437,0.5368582212358712,1.0304996704272926,0.24466599424723534,-1.6173365590579807,-1.4705951151311396,-0.5355069162247702,1.6721202886469662,1.6996559458263218,-0.8825730353038758,-1.849051849784702,-1.0883519938066601,1.3352942258901894,1.8363370373792944,-1.148647399489209,-0.9036500909283757,0.7133635928507894,1.7635661079399287,1.841704555761814,1.2804489753723143,-0.22088271187134087,-0.6169868930269032,-0.25488447805857284,0.9707795804146677,0.7260252137642353

Acceleration y :
-0.13145031476002186,-0.16755575696192682,-0.15485924739819018,-0.07970031771059148,-0.18589496685406193,-0.259618356446363,-0.1372453469727654,-0.11885505534736439,-0.12108930807230062,-0.1461254400535021,-0.17469892498115078,-0.12103213452496565,-0.1306462866344489,-0.09446459172540343,-0.04611331546986475,-0.10481768910130486,-0.04419361771997064,-0.006623218102860846,0.02466243298073532,-0.004514598197478335,0.020037033635831904,-0.004187762839942297,-0.06990007757763378,-0.09008799320952966,0.060408241240144704,0.058799595900531854,0.09163915904113092,0.13359851490301078,0.13098150080502963,-0.03323082748050801,-0.0014020620892646546,-0.008743697980217985,0.021420192806632255,-0.011022191134857712,0.02603796596750617,-0.032509869961929505,-0.0775297870047856,-0.10845866681900806,-0.1307945451318752,-0.07364867582169826,-0.05052219512041192,-0.016955139689170753,-0.012987690513057168,-0.029524771470227276,0.002714643809523841,0.04737622067830525,0.05169674619196448,0.05700351539715193,0.01983436893689213,0.002771836764812178,0.033348190799460276,0.01170366488477448,-0.012886295373149914,0.0223903050639783,0.013416669072938384,0.031602694272424556,-0.01099404617754044,-0.04219169874645304,-0.05325172511558048,-0.056304687511990775,-0.07046541070966049,-0.0944795518325176,-0.0107912536144373,-0.023756382952525745,0.01835654804435908,-0.033569377535779495,-0.04982181459898129,0.02820874555177288,-0.006425876891365623,0.007380280122926342,0.03521492995283333,0.01740209914702573,-0.03667931939999107,-0.0388728839215124,0.04112556278570555,0.036245887285633945,0.004781387345169787,-0.07257276281903031,-0.17614600025061516,-0.11428892560875974,-0.06798064468922094,-0.07713328023417852,-0.11119564490169286,-0.16586131933527065,-0.251453827756457,-0.1022367874963209,-0.0334119310848997,-0.019818586845870595,-0.01181527774130809,-0.1342450874445494,-0.14347501687626354,-0.04457458442815113,-0.005078350722949835,0.05414471473281737,0.03169548255583504,-0.14969548055999912,-0.13326943821227177,-0.10803032187172211,0.07499622253971173,0.08451966415843926,0.10070413456894457,-0.0026035406971772314,-0.027344246810080946,-0.04608392954517621,-0.12191894556316546,-0.10822094907299615,-0.1309014669719152,-0.07698398969029076,0.05098434643917717,0.02252638906642096,-0.012072733375895768,0.21150566558651626,0.2564947445331141,0.3194639725347981,-0.012092848007095744,-0.1455599151252303,-0.1595852712730877,-0.1504992712235544,-0.1579629307682626,-0.022770668983960057,0.07048907927961554,0.00032030254767360017,-0.11256847675801254,-0.11430559361577033,-0.03711740485657938,-0.03740450556911528,-0.1976191973195411,-0.24987278737640006,-0.3428239879973233,0.003354217500584491,-0.07700241126297042,-0.1842099363765679,-0.018140100273594726,-0.10952972098346798,-0.14662581819053738,-0.1529072274144273,-0.15374858274254946,-0.07944550269930623,-0.1251912543652579,-0.19121228941930457,-0.31042686226144434,-0.20184952836567535,-0.13058267421317285,-0.20377505306815727,-0.20509738771310074,-0.16755491671171038,-0.14111050710147247,-0.05286368477921933,-0.03364098831713199,-0.04028904802948236,-0.04301995256440714,-0.059614551845495585,0.003988205982241197,0.02794183367731748,0.02400152138659032,-0.0568660888209939,-0.04196354341323021,-0.03056160142138833,0.0745307969850488,0.003193963746332156,-0.11261631622142158,-0.21001690659979358,-0.14939761185827663,-0.0034731032022318684,0.07462762668933719,0.10134601266905664,0.05756508566951379,0.006634426195931155,-0.05681665105554275,-0.09373337310771457,-0.21117480793064458,-0.18532303045131265,-0.12592053675418718,-0.2148553230742924,-0.35727362483870234,-0.38720571216791866,-0.17924955575652418,-0.49723359193187205,-0.014139747766655636,-0.024306886124890296,0.2785361516777426,0.3053433849846944,0.3041404389357194,0.1449267865871545,0.11764906795793212,-0.01223388674586895,-0.13650615511117503,-0.1707600876948796,-0.13438150024055504,-0.15777820358481257,-0.1496672682456672,-0.17389907984035088,-0.12309934185361489,-0.12490388879124074,-0.12511135752946137,-0.08340996761717834,-0.07753462757668457,-0.11962062375922687,-0.04307712154516485,0.08320994239989668,0.0630275934256846,0.008923529222019715,-0.0525046102424385,-0.10750946720223874,-0.16682537859445437,-0.20307486890954896,-0.16945366300512105,-0.2236086479702033,-0.2471051492939703,-0.10247116250777616,0.0178009542799904,0.12083406380275263,0.010985338856343878,-0.030972463227622208,0.056640965695073826,0.0786780802570749,0.05732405715498607,-0.019841184553457424,-0.10825224839355796,-0.1487138491115067,0.01715769479025621,0.11221446655541657,0.14546194377662613,0.2574666583051905,0.1788715162243694,-0.024791991344268897,0.004422214056155644,-0.0638359552330803,-0.05401478190994821,-0.12344440156477503,-0.08844916736078448,-0.09344296619324013,-0.0048849139350146285,0.09817945666322483,0.15408376951366662,0.17486953230770302,0.16668997044544667,0.24797073488105087,0.34152792030479756,0.2514227019658312,0.08110045769894494,0.13628778138644992,0.23120321301873772,0.2067821259296499,0.10191812260174192,0.06096918589142151,-0.17554038077397272,-0.13251112152510322,-0.023265772724256385,-0.07418193331502843,-0.15983880764273925,-0.14689519145013763,-0.11315520887109451,0.09545585865192115,0.00667375355932163,-0.06849739400574471,-0.05353018129735719,0.004650161610112991,0.09883977460232563,0.16717260286323726,0.14785981696490197,-0.043475865938630884,-0.0980635477991309,-0.040047964716027486,-0.0872459107845556,-0.1116886251835618,-0.009563226781488628,0.06544411194892599,0.11773531233612447,0.08065730790817179,0.07759671476115472,0.16902950104260817,0.09820344946016557,0.19056880388399586,0.18394565941719337,0.2674188193305395,0.12048020886378362,0.027894156327401286,0.23401717446092515,0.3477488771788776,0.2998795848871581,0.08065833995463326,-0.04037482661679387,-0.12308713082601315,-0.169522618321795,-0.23002792216166854,-0.3556995804550126,-0.0808433502658736,0.08262287236009724,0.04372382195086684,-0.038295374011213426,0.009503484534443123,-0.11256707938537001,-0.1850595206769183,-0.30053815839374437,-0.1791780248902738,-0.12067627029200084,0.11356410933239384,0.18917046312708408,0.19528938439879565,0.1355860719910357,-0.04604407702540047,-0.03487833667591912,0.14950419577159918,0.15063723665582945,0.22916496692309155,0.16793867359859868,0.06957529346952214,0.4841846522012725,0.966993047613278,2.0650904095605016,0.9054731416370719,-0.16995180351929737,0.19156523104282094,-0.2540315510236658,-0.4672189043531194,-1.4228376309171318,-0.1527925423930399,-0.5093213219475001,-0.38582887085676193,-0.09670477186762727,-0.021579032063577322,0.054576813406613654,-0.03363146472024964,0.019829384517809374,0.05155348353006411,0.16808168053217232,0.14400077604972755,0.12496787567185237,0.19548837756961582,0.20648860460948198,0.44438236477542664,0.4303651645345613,0.26900722103314473,0.23359027255205436,0.2673869446212426,0.37601613656841215,0.4556847896322608,0.4405468052005395,0.39819534474853424,0.10732222840129398,-0.008996459744201274,-0.10291174588212743,0.04374235312140081,0.14169964123419485,0.05323623528550379,0.10680177559060976,0.19584659815644845,0.2425769130134955,0.28705647153537717,0.27938405547766015,0.18366063193073495,0.12576997670182027,-0.19512984645552933,-0.4224735710345208,-0.0757606630069902,-0.02433998239360517,-0.4077673656161874,0.09169166554650292,0.011116522921383147,-0.25958891115617005,-0.6258409383509308,-0.7654612251609564,-0.7028166990689932,-0.27640624524326995,-0.23781879523359237,0.11200478759380057,0.1935921337605454,0.1004670561437495,-0.036075289092236194,-0.07907274213046767,0.22133487608563154,0.3396033089177683,0.5174773750700056,0.35257100010570136,-0.2450019116707146,-0.3597898089107126,0.14691143933204,0.37301921977475283,0.3030671106157824,0.12800788268856703,-0.09105728576625696,0.2854676862402819,0.5157276087932289,0.931559257595241,0.8202008233472704,0.49354467428606,0.3451655826874077,0.5436511693116277,0.5693944997141137,0.3809337922915816,0.16893336545806378,-0.23057804859140887,-0.40071825082227586,-0.38933486968372016,0.26680039517125115,0.23633224647026507,-0.35163499789722263,-0.7093762037150562,-0.19119305499587208,0.4523432971846312,-0.18303875543903558,-0.18303875543903558,0.040208548405487085,0.1339200019423384,0.11875148537503555,0.04074101588095073,-0.36374552426654844,-0.36924496193304657,-0.21884026452461255,0.34285018188450483,0.41721733100675046,0.2003626508087851,-0.060080461457348425,0.12267198328701778,0.6846038737691938,0.9139814422633499,0.7327629975866526,0.1979644488269463,0.3164014066264033,0.7412506207510828,1.0617092668790369,0.8617288385871797,0.12880432116272858,-0.13228798029371536,-0.07429106537846382,-0.0780999607087113,-0.024177019517391454,-0.3099062359208241,-0.3553289570443332,0.02109590873873094,0.3683411814937368,0.9171611682780086,0.4813672201603651,0.2085804440558888,0.447201842642948,0.8495609194748103,0.7033743329517543,0.14174219260113313,-0.15112824417632073,-0.40713480333369223,-0.4381564394652843,-0.3604502455808222,0.0037210928929751388,0.1587132559452206,-0.31855858466029163,-0.5075993569931015,0.017492231965757672,0.24304151658425105,0.42671515412703154,0.45846064755376426,0.3193653709985316,0.25234423725754024,0.28710982742412017,1.1985424802538007,1.4467426765091715,0.8887350650649517,0.1360878018349409,-0.47333771602697666,-0.24646650433056055,0.19181931540174407,-0.40094113632533696,-0.9751277656868099,-0.8616475900445133,-0.09577488887268118,0.4852076751060784,0.5699923925420269,-0.3108687973426655,-0.5847364822853356,-0.5267444947069511,-0.21445088872555643,0.9368322295621037,1.0868011841680854,0.22333896418334914,-0.7466870396513492,0.24383162578232584,1.0595548653241247,1.416430686484277,0.778457192595303,-0.33823676980491724,0.21502850595042108,0.714731374072656,1.5861790581196547,1.4517498371466993,0.1986211591700092,-0.273365452775266,0.06814505973700434,0.9698056938812136,1.015766430871561,-0.34340047271102664,-0.5942195462279022,0.096716462305421,0.4904764092892408,0.5050380916703492,0.27339252344528214,-0.6022240620505065,-0.673451634505391,0.13312930822237393,1.285829353236407,1.2954634430222212

Acceleration z :
0.02227153523922898,-0.20374429260371252,-0.3646656713187694,-0.3603740385394543,-0.12375920313498937,-0.23440200906004754,-0.16253599257115273,-0.2396804791859351,-0.4010326870663091,-0.466243519982323,-0.4180889992747456,-0.12110671586482785,-0.060260663162730634,-0.3560110575569793,-0.38889245967846364,-0.3331653482921421,-0.03850092707027215,0.03210776228430914,-0.027085209998115894,-0.0357127325402922,-0.2846839154514484,-0.05474104579130653,0.10688436670699156,0.13806955936984158,0.06087265758123248,-0.05302240530515555,-0.3301495441349223,-0.35701117451023306,-0.09974559173509479,0.15816976018566636,0.4310367436531931,0.3387615243313834,-0.11257095184288918,-0.4246455082461238,-0.2913690557711758,-0.12317598728640004,0.31573205599747595,0.4300990609442815,0.30227340295482424,0.10244136102455667,-0.05842647000551223,-0.39397356233503666,0.01860465932022198,0.35343229311015456,0.2974886894289404,-0.0337693707870203,-0.12435585385388694,-0.023629701532667968,-0.11172253658631816,-0.0037657343252445567,0.10450332592250779,0.04154238169197924,-0.04416552870322484,-0.17306569775613023,-0.02896816278406186,0.16455588102620095,0.08610679635256528,0.061990551128680814,0.12240661034910008,-0.011294805522670504,0.2051542142005637,0.18261921485271304,0.1357276176198851,-0.11080546740717254,-0.2983988630764186,-0.3910533640393987,-0.20025930003216488,0.3456570559987798,0.3496212834546342,0.05663940849222708,-0.24174437117949127,0.12168014097176491,0.23751785779194906,0.10364851745776832,0.010945383588579716,-0.21571078912615774,-0.18303524830769746,-0.07531941291235852,0.3343668330363929,0.5080860079988837,0.2525936454413459,0.004703051137152942,-0.3135630779279396,0.46590208613350986,0.727014590127766,0.3697667573174461,-0.4133965306095779,-0.5438435866111889,-0.05734219559987541,0.4920074913140386,0.505736704926379,-0.051911379889911034,-0.3461579912582412,-0.3038829022443853,-0.07900180491926148,0.6936278688326477,0.8669904854424297,0.4877904946735128,-0.32576365720089523,-0.5838987893521785,-0.26132090431423854,0.1991894423109479,0.030095340183086225,0.019469006223219912,0.1665224866577424,0.32093167046718296,0.3588028436999768,0.06836146070035175,-0.5714021497420966,-0.029708583054936025,0.2748221178569831,0.08316745496504008,-0.23952338892808184,0.04191447097396012,0.3798782188240438,0.5730562736246735,0.5054103590488433,0.9676950584027916,0.8170485698614269,0.11259025933155789,0.05975478230009321,0.6645278849460184,0.8802829516053199,0.9578721680466085,0.4644767660381272,0.08931889940002001,0.02750322306434391,0.3311959844479337,0.7473433846682309,-0.43573651884198183,-0.9246473593149334,-1.0084824113432318,-0.15237930368334054,-0.01985699176065391,0.6066361794043332,0.004158610666927415,-0.3684412443347275,-0.4895962289212271,-0.044717394998902454,0.6628925388291478,0.7735475740481168,0.5472604458499699,-0.06878728033041115,0.34061544510237873,0.6341521089699119,0.6088508597791195,0.3328726854884997,-0.1532987383495085,0.3806623914716765,0.4861841189227998,0.3554860107695684,0.041853740062937135,-0.14776549887810833,-0.13167997706374152,0.3236321981301531,0.3868494826087728,0.41018034504204987,0.38597704715579745,-0.02723740488514304,-0.1477349210767541,0.17400858636312186,0.7765036473747342,0.6360610113311559,0.14327871798602862,-0.15312929093358105,-0.3111133466882631,-0.12348872476369142,0.32836846940442915,0.35443865714110434,0.47151481144875285,0.43034386601820585,0.1641995236028917,0.11766406459766439,0.7982965231183916,0.9677429161325096,0.7477176248081028,0.4276249624483287,0.374161923536472,0.8439037704959511,0.4655034056721255,-0.23510922574764115,-0.44490777688901867,-0.3399507706485688,0.23850354436105115,0.5067684956595301,0.2894376310508698,0.26919152809148655,0.25029327781079336,0.0570719364242861,-0.14683755211192182,-0.15328587886793538,0.2376950044571422,0.07954834201927297,-0.17307528756838292,-0.246354367459286,-0.10232189023019746,-0.006345984622146352,-0.021427880639454815,0.052248749484959986,0.0823779028893914,0.1465462136156857,-0.01579290467649698,0.17029473520545288,0.47032677070796486,0.6041891150457784,0.09517288612523116,0.027116358621628023,0.4573848350157961,0.6361031699724495,1.006782913948968,0.8272780682571231,0.35614425548259165,0.5749747109992429,0.603389087241888,0.8637090526189655,0.7323490830235183,-0.24725575501210986,-0.056115991972899064,-0.13118756303745321,0.037336171306949106,0.5235273958239705,0.24897426763409747,-0.4284424163110554,-0.5000318808808922,0.12451340076946653,0.6359068436827511,0.5623509013455361,-0.22384344310676677,-0.18896189841032027,0.18395367832686751,-0.2884761656075716,-0.27365541216516864,-0.31822664929218586,-0.05342615010072477,0.06235668559391051,0.4491705123674124,0.4713089501457289,0.9537004353199153,0.5827738769754767,0.49476256217584014,0.9907244902040809,0.9430087262399494,0.6789740511886775,0.7185185644611716,-0.027599000172573142,0.04686728477547876,0.7195034838452935,0.527043916044943,0.2568117563267238,0.15457765397783368,0.40503140131365506,0.538382690856792,0.41974199064616113,-0.45283688938785344,-0.3500417373564094,0.19469143677195533,0.19530682872394098,0.5682229717167094,0.4991316441055387,0.5374737593183294,0.24579054129775613,0.05678032849999144,0.09692571200877427,0.25787262702388686,0.1792691372398287,-0.24888907356867565,-0.17008039833502844,0.11299627371602691,-0.04087722774755675,-0.5884224773216993,0.05122519685719162,0.06345420307361055,0.07794680684045888,0.2950973190466873,0.2299322615011595,0.2133434754729271,0.3097964554034173,-0.2610122950227931,-0.5300892020249739,-0.4516154943667352,-0.5533531001692638,-0.31911990833748133,-0.3299496376486495,0.06809697367842309,0.15826673602042718,0.46959765271581705,0.46151598000377414,0.2434438320411369,-0.09117288410309701,0.3084428853699937,0.4003721773309633,0.32864027208313346,0.3963900123596191,0.3303230375383049,0.2976628952183761,-0.07966525553036481,0.31682412555050105,0.1049743866335135,-0.11755675003197975,-0.03417449012234574,0.06639828456833492,0.5424781800094992,0.3360101432640105,-0.16416700957277788,0.3002704108356498,0.946576867050305,1.1475138654146342,1.9049724744491279,1.6489580242462456,0.9686722328718751,-0.06346724521827418,-0.6551254850242286,0.5439930050192401,0.3649987391980365,-0.3612777459135279,-0.3781765660053119,-1.3305115216583012,-1.2535389027453958,-0.6627235389377921,-0.4566981313932687,-0.19874266665782778,-0.16742666895585134,-0.21692756277108563,-0.10442584023950621,-0.4003571258923039,-0.311652568131499,-0.38964795422088355,-0.355179173310101,-0.1984626806726679,0.0023031175662981693,0.21802578807026146,0.23895592777105046,0.22190748834181576,0.16911003719922155,0.18954024628754704,0.5072088963707909,0.27650013407180085,0.16348746634339914,-0.11879409154090098,-0.03715989914130186,1.2735175686739384,1.4873678246252238,1.2357758670397103,0.610620974724181,0.550948340582475,0.8463076898325235,0.7239174278300256,0.1314691747241188,0.07914731433717534,-0.6435885572917759,-0.7643822708178312,-1.2098526865582913,-1.4954564385347067,-1.4594431681282818,-0.8566391142327338,0.006456136744777905,0.8680456205185503,0.8159969419166445,1.089874819459766,0.8336259759791195,-0.3455945121565833,-0.5468104005275294,-1.0579799441576003,-0.7070751602310686,-1.0223558922644704,-1.0929349376827477,-0.1045723634375725,-0.05861455362325068,-0.08870783656327985,0.6209603267025202,0.3101979488763958,-0.5137755614100024,-0.39119828893542286,-0.22697246184749528,-0.2424494141763076,-0.195685635441076,-0.2341487466850318,-0.02395669814746361,-0.22061443459028376,-0.3245661910446361,-0.18537072378424926,0.253475725505501,0.937357057153806,0.9624022126916796,0.3584952390555292,-0.13695736034424044,-0.19915884624328464,-0.008332659219115158,-0.07008680948850232,-0.005918400009974721,-0.6102971495972946,-0.7425687906775623,-0.13898202543910593,-0.2584671405846253,-0.026532829962496177,0.9101482938412576,0.31544834368526936,0.29929088001269843,0.8218076740220188,0.6904680165622383,0.4192828121691942,-0.1659375811755657,-0.1659375811755657,-0.011993885711225448,0.22265790485031903,0.3516085848143324,0.3395802203031257,0.8508722943343222,0.1447294556504581,0.16010558708645403,0.2124865481163375,0.12987018769541755,0.2728001470427029,0.4861049527393654,0.33519488135837017,0.5357193899316713,-0.24532316124802453,-1.4230334457501768,-0.8735190834935754,-0.39376671465132385,0.6148451317578554,-0.09163279323242604,-0.11076924531632103,-0.17331952638672662,-0.06532533070773351,0.08448706792993471,0.39445750992707906,-0.15434227431938052,-1.0170224222820252,-0.6230317261490971,0.06792287292026448,0.755088226641342,1.2217093477644025,0.30353167765391986,0.7911370798178017,0.6816472889859229,0.41885260405838487,0.17080290392329917,-0.038305183019174724,-0.11126220733188093,-0.6137856127675623,-1.2211015180643647,-1.3902579882211983,-0.6451430932573974,-0.7895530985619872,0.14799688734803348,0.011257148384914034,0.190601427511964,0.2681149301022291,-0.825917374363169,-0.8169204134371131,-0.7676794857323169,0.10252089253417215,0.5154346537286415,1.2219813696388155,1.136020046171546,1.3672589515581726,1.3926688487552106,0.8130706061411649,0.4815091493817046,-0.695639793176949,-0.6415101435825228,-0.8207247741561382,-0.8404315643407404,0.1396324704381637,0.3509578292880207,-0.42387985763587055,0.24094452603869138,0.11575202043126337,0.32449798464663326,0.25419664192488417,-0.40206480659302324,-0.7134069205358624,0.3675380849499255,0.6125510294713079,0.3683487072130665,-0.13873902872977778,-0.6153601686079054,0.05622189089963212,-0.0845479221385438,-0.19933246751083059,0.36281200627610083,0.7223243134196847,0.29892376373335716,0.35747565021682526,0.43921851573884485,0.6695110071208328,0.8703622999630868,0.27226094386577604,-0.06926004894131328,-0.23386910775974393,-0.5436306014476344,-0.2646239827139303,-0.33848942939173426,-0.07681630497318692,0.32259222409054633,0.35293669161293656,0.08097902327636257,-0.30528458573585376,-0.5120853067681193

Rotation alpha :
6.082486130706359,6.083693880731776,6.08462978952022,6.0853216028544495,6.085838033658489,6.086209631965885,6.086374270554838,6.086339692395977,6.085965410887038,6.085609415717143,6.085483608301483,6.085358685873861,6.085206181710449,6.084339625315965,6.083902962676848,6.083437696663486,6.083296241333991,6.0833341620381844,6.0838751845331265,6.084418394146661,6.084779703918594,6.084686119939657,6.084619460800734,6.084955615577167,6.0853196847160635,6.085803667560365,6.086017506552384,6.085675247876821,6.083574855458607,6.082953075624241,6.083095385896433,6.083926802701967,6.084833610492814,6.08523154537762,6.084718628538406,6.08344165962416,6.0822404888159545,6.081563098495936,6.081601818255427,6.081638920491646,6.081050066364157,6.080020842987563,6.076846876670075,6.075257463116129,6.073975965813726,6.072693030708828,6.071267095171113,6.069751976610478,6.06834084297497,6.066964088431756,6.0660440904893775,6.065400628543558,6.0648385267276925,6.0637998638316475,6.062202799096767,6.060863132179676,6.060391851247759,6.059620697303818,6.058715337806727,6.0576293195844135,6.056812097430834,6.0564529159111276,6.056692159968303,6.056652545102604,6.055697904317626,6.0537667282113725,6.051476617121323,6.050003310583965,6.0497707899124675,6.049972035526977,6.050049596094942,6.048655016613655,6.048391632282732,6.048669842267008,6.048949247444233,6.0489817378880195,6.048352149217381,6.047276110796629,6.0464391688598464,6.04664335122924,6.047308850054838,6.047422553556478,6.045672217436894,6.042707191518086,6.040373735885875,6.03946852698671,6.039179105931256,6.037938365591037,6.035776199898018,6.034009020479071,6.033871832313201,6.034899867937318,6.03560956237575,6.035013171510238,6.034003036622963,6.0340615167179985,6.036070620521627,6.039442020709382,6.042553594073666,6.044753445192133,6.046486585497602,6.048322133348347,6.050278434520693,6.051172451012964,6.050903219203276,6.050674597083279,6.051876426496979,6.053665934385441,6.0543949054567126,6.053260556781581,6.05112348798992,6.049392240725359,6.048255484696799,6.0473562877834945,6.047331610083653,6.046964590196053,6.045875554786552,6.044774885871182,6.044991741371826,6.046047235173411,6.046254307974364,6.045515704810029,6.045083386187476,6.045548576298578,6.047486528099387,6.050098755955321,6.052058989219016,6.053270280444476,6.054367499677889,6.060267313362868,6.063226734936256,6.063179124319654,6.061262399534931,6.058808832080767,6.0580630437829095,6.059507603045353,6.06081540343492,6.059878927214596,6.056713200115296,6.053713699599807,6.052136592674207,6.051776388637746,6.051342823346782,6.047678221227045,6.045806324031996,6.045155135736911,6.045018313131217,6.043959871944542,6.042395902031756,6.04142471333226,6.041420335230277,6.041700059301415,6.041577949699834,6.040678107986007,6.039237869831984,6.038259656608165,6.038034993653303,6.0386020177876265,6.039455560308751,6.038181298674764,6.035797150390677,6.033717275335073,6.0329298743345126,6.032779179124762,6.0326523085922,6.031505148544877,6.029648534370865,6.028297196905456,6.027838769072508,6.027996754378971,6.028861916854465,6.029419011004696,6.027274910048239,6.026735683295124,6.027939571351366,6.030606358345502,6.033595292239983,6.035776514760576,6.038444283572966,6.042287701563567,6.046148117078035,6.048512235060001,6.04929962427968,6.049142178834732,6.0492978130276205,6.049877395678962,6.050650936448243,6.050741030711659,6.050725148126622,6.050219170154135,6.049180774829738,6.048034681598745,6.047700865233136,6.047747687023346,6.047128066009236,6.046019547371644,6.044531473616524,6.042585867333104,6.039932066674373,6.036860914689181,6.033977192590564,6.0275234002555935,6.022885853363504,6.018122608964895,6.015167742238313,6.01303335432814,6.0101606858062055,6.006045226456033,6.001333311042506,5.997419339803017,5.995007194301824,5.993218900121226,5.991757078794956,5.990632481770011,5.990258607824572,5.99113677177501,5.995601726809328,5.997349648453245,5.998322772887212,5.99814421079271,5.998288938801655,5.999883023543726,6.001000521741616,6.0007148494571005,5.998927093719762,5.997834838318827,5.998355682480703,5.99884992831053,5.997807171097473,5.994192676287894,5.9918795097425575,5.988870030608977,2.8437296048015894,2.8391804912216045,2.834124190021242,2.8289622401486434,2.8240030220857095,2.819547340449237,2.815559863489151,2.8106344791838156,2.8054418390084126,2.8009722608193472,2.797057337522994,2.7936783524082904,2.7892260162296436,2.786729442323434,2.784750835665028,2.7841217487000196,2.783888666049665,2.7834682656924032,2.7830125571590463,2.7833807164639017,2.784292225037126,2.784757118721902,2.7834351260782784,2.781926258026613,2.7808127085867413,2.7801046861816636,2.7803364889675652,2.7809450444013137,2.781261944855949,2.780628386885395,2.77948170514744,2.7786667014648803,2.7789077213162607,2.77968702399981,2.7795690308813765,2.778864817339708,2.778611258165158,2.7770218630244234,2.7748050176922625,2.7725291082550263,2.7699201423420052,2.764823719428315,2.7619089966848054,2.7593411392105427,2.7570947468187526,2.7544762759236647,2.750655002243308,2.7460654577157797,2.7407981911668964,2.735415086146943,2.729460121921259,2.723218500710717,2.7169718343073677,2.7112175692341536,2.706714179558764,2.7014335974717527,2.6990153031841158,2.6958867750862145,2.6927629201456793,2.690135669852921,2.6879486232463123,2.6868141955482443,2.6863965548943254,2.6851650091998054,2.683749197422121,2.683954860610997,2.6849322762911756,2.6847555295466576,2.6828374050425583,2.6788782790409624,2.6792078478092725,2.6803445133143757,2.6811180726611696,2.682603932220792,2.6862075726964347,2.6927939053548178,2.7030105508498155,2.7153086282132572,2.722898913020602,2.726499020777936,2.7287922384422507,2.7319625789681385,2.734940516397034,2.7381037444539214,2.742570600314141,2.742007270282994,2.7405766252691786,2.738874017036443,2.7369618184916558,2.734654300735711,2.7315153893185413,2.728465292151212,2.7257214875159264,2.722864605714284,2.7200131317840794,2.7163575444834693,2.7118544879690267,2.707125260086374,2.702570604588953,2.695492390264367,2.691302151244507,2.686383835691113,2.6814372083610514,2.6775018492087663,2.67437349413641,2.6708161492888354,2.6665971434055527,2.6612572009562845,2.6553785143026842,2.650314305232951,2.6462476641312707,2.643241062082602,2.6411284359293887,2.6372849897636006,2.6362618460100893,2.6357935900765996,2.6363838814613194,2.636922435627174,2.6359033191482593,2.63311627744306,2.6281015408946407,2.6211681336167185,2.6143721311305095,2.6086037935311244,2.60320621079198,2.5975659250653758,2.5917306630990127,2.587241623370098,2.5797988668265757,2.5767152728131553,2.574135183975296,2.5722975329891073,2.571322092007317,2.5700603331508933,2.5684397998351267,2.5676111338980623,2.5678595119091296,2.5698382685993115,2.5737052829300593,2.5793585520101474,2.584432296103327,2.5879733598066323,2.587622637413893,2.5858146356695166,2.5852443824496376,2.5851905323086144,2.583897395525882,2.5798887822702543,2.575130772559979,2.571896956821648,2.5708477909209644,2.5697361884882315,2.5664759799041863,2.5610828708073687,2.5550567474378605,2.550259923118988,2.5421933120671634,2.5381214435437096,2.5349469861733636,2.531501465594155,2.5279758625608304,2.526734460941951,2.529059227763332,2.5333792057226936,2.534611548016298,2.531344665638281,2.52946260817295,2.5320710779574123,2.533602952938445,2.5205539970499222,2.5205539970499222,2.5147366647755094,2.5143608508500486,2.5113808421440615,2.506648665709508,2.5035282977512017,2.503946154366971,2.50485813251359,2.5044233075447786,2.503058102805812,2.501503710921831,2.5008333808023417,2.501377041418914,2.5024475282492635,2.5018793754092776,2.4986506523060132,2.4934609011392848,2.4938372878901403,2.494960873604096,2.4953124018699895,2.4941426399854003,2.4925156165331055,2.491521938425941,2.4915596987000383,2.491330601284797,2.488866095922032,2.4842507003123515,2.4802147859566666,2.478902169408049,2.4790278112656323,2.474533289629627,2.470425785561461,2.4691118584029805,2.4698255364723365,2.4690153450063237,2.4653862572532095,2.4610871662155684,2.4571796098719423,2.4521732241575065,2.4457699782427786,2.440173885151138,2.4361175609451133,2.4307315132826672,2.422764409992073,2.4121803996589017,2.4124187675504487,2.411954491511249,2.4069313511702495,2.3984183046928806,2.3905890819830167,2.3857604550734215,2.3834524655567293,2.3804053967261396,2.3742902304382807,2.366059878244165,2.3590736401935333,2.355404647411082,2.3541912770111146,2.347054686845078,2.340309570906698,2.3360489579148513,2.335643286672437,2.337505228817524,2.3375607634499875,2.3329449272383465,2.326623012128587,2.32293684156254,2.322541526234593,2.3233484320883964,2.322474325571279,2.318530433839921,2.3136341642220573,2.3106354759158,2.3126286650374963,2.3129185533311185,2.3085676662010672,2.3015080380639925,2.2969623810607858,2.2978343979319638,2.302167701978058,2.3046844640037616,2.3016733925938975,2.297029204158844,2.2976143448320565,2.3040240456747814,2.3107917895946897,2.3118272875175996,2.3064612450313264,2.3090469353031327,2.3135283855487843,2.3153800706780463,2.3122720463000683,2.3059994275449323,2.3004106950470744,2.2982171504389632,2.298372378267669,2.297164175657993,2.291342059060312

Rotation beta :
-0.07366673527378122,-0.07445144695865834,-0.07531066112245513,-0.07529118087199076,-0.07462829228504816,-0.07408785145780088,-0.07314236059890425,-0.0726696256992308,-0.07172005515677873,-0.07050102892691185,-0.0677930067673379,-0.06538219042245147,-0.06411686786533277,-0.06282038057103434,-0.061549575709493896,-0.059628177308483306,-0.05766955922148252,-0.05658325442929289,-0.05594020607219446,-0.05557319018539586,-0.05483852074618938,-0.05318648008901336,-0.05164540868455444,-0.050941236046156496,-0.05112858205174986,-0.05170536809763641,-0.051988637266472223,-0.05095873161023064,-0.046994151753543205,-0.04499924549750064,-0.04394984262838882,-0.044332643088662096,-0.045392981025828526,-0.04546639598160902,-0.0440662800059795,-0.04196265215842804,-0.039914115690297416,-0.0391458752350134,-0.039287379389889396,-0.040327401119004395,-0.041571273455029666,-0.041734343297552094,-0.038748622436664354,-0.03738218774484871,-0.03711573761835585,-0.03745983459088947,-0.03752284824840339,-0.03745468279746974,-0.036758317575889765,-0.03573569899442974,-0.03479920301405565,-0.03404567897776635,-0.03340948473593512,-0.03252785798156247,-0.0311686651638457,-0.029923977630739555,-0.028926628236988057,-0.027361800333676415,-0.02674988296604156,-0.02585544483989964,-0.02523929929227117,-0.025094020327371774,-0.02530354121246992,-0.02567969365745831,-0.025673087476796436,-0.024482698529685282,-0.02220259673077331,-0.019692530186278114,-0.018341221931303445,-0.017970922359122118,-0.017390787971561874,-0.014293471298804336,-0.013002701091785042,-0.012265019757778352,-0.011950443130811636,-0.01137987726385346,-0.00975123618374894,-0.007491985029747202,-0.005464973054384542,-0.004787789951273106,-0.005299430995306424,-0.005897056433957356,-0.005983001294094214,-0.005881077599904539,-0.006903416690151302,-0.009082602845884725,-0.01190649567521949,-0.011344296932192315,-0.010177166638527507,-0.009676278918178538,-0.009991874468243789,-0.011030551878592254,-0.011748586662574197,-0.011614656926348142,-0.010775737220238597,-0.010855114029461198,-0.01259821297949996,-0.016906725267353807,-0.021757916578263935,-0.024907527857012217,-0.025286709245465812,-0.024544685039070986,-0.023832463222077015,-0.02317972214814295,-0.022428659756610583,-0.021840424140808917,-0.021696494650219247,-0.02140162069800395,-0.019735185710568103,-0.017097701416050496,-0.01504084736248392,-0.014199502376564137,-0.013014494044477163,-0.010453714832144247,-0.0029878924693636185,0.00032425618572893937,0.0023272973425002568,0.0032995916839799076,0.0032556737839249538,0.0033390548811216905,0.00433450585479229,0.0054800768939120325,0.005809450139537701,0.0046252178701606484,0.002745843136916941,0.0017400019312378398,0.00246197726067479,0.002992972442672893,0.0013118223873704224,-0.0053800368508706365,-0.005960006428659613,-0.004425679781419826,-0.0023380587583111123,-0.00047251193136298836,0.00032237513045863566,0.000399012979047272,0.0012745232510008124,0.003190322995774014,0.005681951311786588,0.007586196891810405,0.00809450184944172,0.007386504404077269,0.006658076871403039,0.007052816387103319,0.006567012812434008,0.005283561971106443,0.0037076652056544845,0.0030322606781482873,0.002856198847484349,0.0021325068376028987,0.0007248800139555627,-0.0006316046443826216,-0.0009818661396739546,-0.000385589123099803,0.00043331381584044804,0.0008235873501021065,0.0009394153305912052,0.0009881984391803356,-0.0003803203248908485,-0.00023888154389890018,0.00026559934664753516,0.0012893134637641554,-0.0009063136007859788,-0.004214644077609977,-0.006733412537885494,-0.007381103481865238,-0.00694743379304552,-0.006937668205764722,-0.007594296065944914,-0.008627464831334215,-0.00996784020886359,-0.011405871642954136,-0.013588419940557149,-0.014478620723165693,-0.016168804551353368,-0.018733137422291116,-0.021087546992884062,-0.02334682682785409,-0.025904588937085856,-0.02889559740708675,-0.03201223031360783,-0.03425424964948407,-0.034926635159711894,-0.03459066111480608,-0.034213421388810825,-0.034045223416734466,-0.03414428373741278,-0.03428035809766939,-0.033973306469008716,-0.03307796385848886,-0.031853503722295284,-0.030967090169891336,-0.030058996535799,-0.028487575012301748,-0.02507427798624763,-0.021751793656797438,-0.018695384352129116,-0.01727994547666271,-0.016218916445561754,-0.015059827753299376,-0.01289095820877135,-0.00719253225668182,-0.005430300766011399,-0.0032419735352124204,-0.0012796431571772697,0.0014173706585907545,0.004647431317897141,0.007258141465452719,0.008829502231304097,0.009524748324064074,0.009795695474582044,0.010216110327581136,0.011130188277250245,0.01228389110038671,0.0130088038345966,0.012784022253237708,0.011995006796610324,0.012930735909477995,0.014856053798885875,0.01663549107322473,0.01587990406074761,0.014327092017016384,0.013811090894616011,0.01481074144825259,0.01589063395960619,0.017095555853961258,0.018350529781503866,0.019935345789436284,0.022096972504965073,0.02534823802105082,0.02646046679881427,0.02764540102612154,3.113415783254695,3.1140910964552564,3.115455753407259,3.1164798415030375,3.1167646983255355,3.1168229425333602,3.1169416117402227,3.1171882132542863,3.1168864788950987,3.11580571345663,3.114763146768349,3.1142777625436464,3.113938682057283,3.114116576859858,3.1152850452181444,3.116085538399774,3.118190871404043,3.120453749189689,3.121589683485431,3.1235965796306524,3.124932260967884,3.1262888094448518,3.126919284018333,3.1268789151371115,3.1268175212134497,3.127201956750331,3.127134025540057,3.125170664274523,3.124515416514512,3.123838746315558,3.1218822138122917,3.120604678310791,3.119802111631486,3.1207841770382716,3.122180870067205,3.1233825604487686,3.1232077836486307,3.1230976780622672,3.1238676610967615,3.1215627437823743,3.120102425619642,3.117045883845346,3.115264014690106,3.11283945882393,3.111785587674855,3.1103160180746223,3.108049179848466,3.10528492572683,3.100503838917521,3.095677710321489,3.0903589602400503,3.084777549041078,3.0791877743721754,3.07460582147099,3.0709325751266054,3.0686560080596266,3.0688332652137698,3.0694292364919287,3.0694157566175835,3.069791626421001,3.070889606766746,3.0718908126098277,3.0735996028206083,3.0749755990934085,3.075878510062962,3.0786401985891834,3.0834209547963725,3.086463991230306,3.08702920300465,3.086751079413791,3.0881780573850315,3.0908031740907687,3.0933916123787575,3.0953349107322494,3.0967885010821266,3.0999247342985243,3.104830299936538,3.110486667907507,3.1127554831923225,3.115266570526878,3.1136006547789465,3.111723794780715,3.1095840926256084,3.109594643971041,3.1072315914275395,3.107071696011308,3.107065814533127,3.107779169596135,3.1079904416555344,3.106936189750966,3.105211847240822,3.1028676550854226,3.100863069840645,3.099473233386847,3.0986830897777513,3.096742258422936,3.0945914505468783,3.093365157245028,3.0928379202219762,3.092688215365415,3.090192925463469,3.0871418509369937,3.0840193508561646,3.082630627606033,3.0803231674894724,3.0773508463303725,3.0745702643802413,3.0708845677666092,3.0671646071933583,3.0622877749650916,3.0569999151587317,3.0521282354023844,3.0480886631485595,3.040042353742349,3.035394364690492,3.031694352282482,3.0278358691546066,3.0242067909708656,3.0196464844560613,3.014890252280594,3.010687841053559,3.008479189239815,3.008191227586362,3.0079446286325044,3.006934041718751,3.003751670843326,2.9990394348296565,2.992738969596876,2.979704573821996,2.9722569735154187,2.9686498390156504,2.9675709965620616,2.9651284823497925,2.9679971314779388,2.9717169334211233,2.9750254642805283,2.97909868467009,2.98321785251034,2.9868070497976356,2.9930961538102485,3.000399736672581,3.007305686819202,3.0182613467172694,3.022203730143233,3.026568793060212,3.0304358257898154,3.0338891625829825,3.0371496307100685,3.0400011736681587,3.044677687760207,3.0501762104787122,3.054040185597996,3.0544702233896763,3.055974047684381,3.054932309755832,3.0554161324559463,3.0575533566434268,3.059956651673754,3.0603768596071705,3.062286679183677,3.0652537247389495,3.070272513114934,3.0780252507194508,3.086159959006827,3.091013166811776,3.09428665981175,3.0980398841030796,3.1003625168478903,3.10271986730788,3.099744100407248,3.099744100407248,3.1004325620014255,3.102490248956623,3.102221003934937,3.1003324040123528,3.0986846384402473,3.098024101400488,3.0991829138284075,3.1000126304593634,3.100012909968935,3.100229755816168,3.1010161273286108,3.1020347023590022,3.104351393296876,3.1020473374952813,3.0995893749936068,3.100779944916778,3.1046205595102965,3.110282015269421,3.112425868452923,3.113989480639559,3.1176680221651334,3.1198480156260238,3.121563745500241,3.1229442239314507,3.122160438313595,3.121160401784936,3.1226186868053265,3.125784194956315,3.130399258541063,3.133364780883379,3.1328662430726077,3.133766279907653,3.134397068384155,3.1340630436468295,3.1344283103857586,3.1328609074231952,3.131475318810069,3.1294891708401438,3.1280289616393464,3.1279023634749104,3.1288532439933405,3.130001041754091,3.132023218826638,3.134698543768941,3.136955532140142,3.137912212585984,3.1371880807579684,3.1367738099829365,3.1379571056704796,3.1407630453346127,-3.139329788374089,-3.137299343190537,-3.137019722110481,-3.1376291640144522,-3.138563004194983,-3.1402311560690586,3.1412125476794657,3.136650427021742,3.1356480109250926,3.1354676700032327,3.136850644449168,3.1389688348623093,3.139386968051163,3.13924047597996,3.139356899602789,3.1394363418268503,3.1399467580514506,3.140038315894208,3.138927339620835,3.138252676666981,3.1379834485894054,3.1370145299920904,3.1347951012783395,3.132577543611416,3.1310831245237174,3.129655676135436,3.1284906686355516,3.1286376540192298,3.1297604783141817,3.1293679693956946,3.127786491614091,3.1272130698535143,3.127811242276936,3.1292266063092757,3.1299494881173837,3.1290163878466073,3.127002915211214,3.126318890986366,3.125519299456701,3.1245971794159604,3.1233257267793584,3.1221054758006828,3.1210002312272063,3.1194587513939216,3.1181426564540846,3.115497831811784,3.1119963685706673

Rotation gamma :
-0.030005059797068898,-0.02768000100861386,-0.024882784413299296,-0.0225710126786615,-0.020436238387018104,-0.018081026067714036,-0.015619868341968468,-0.013289788008556512,-0.011795511943230967,-0.009604955657636048,-0.0067049682938558055,-0.003057502018479634,0.0012177296907651975,0.010894977670558454,0.01544095416260896,0.019160926239794162,0.023681660696709315,0.029539897725434514,0.0364618489111317,0.04335488030469314,0.04913390838171968,0.05364740272568324,0.058597149851117074,0.06548641433396049,0.07491132538186747,0.08597789428322514,0.0955896201564287,0.10193767207031461,0.11077264494324075,0.11661248320437093,0.12467351545611298,0.13317481487133329,0.14165831498485634,0.14876449293078403,0.1554575187687451,0.1621080523046468,0.16917306267230964,0.17677389316640657,0.184831050648201,0.19421585116389817,0.20407960772720676,0.21206138846237887,0.22361471883252784,0.2299128622550971,0.2370727360098608,0.2441165443040399,0.2504929445497867,0.2571832645377193,0.2640771835849808,0.2712866649066643,0.27896061128806815,0.28685778856588695,0.2933752920213518,0.2988291369754763,0.3045187440746037,0.3120698178826389,0.3191074378518763,0.3319424657733539,0.337162012414243,0.3428809907536957,0.34973797193648437,0.3590114028191874,0.3687910561919904,0.37683492314716766,0.3820135260065421,0.3865736714760627,0.39224981080875765,0.4007043978093512,0.4091901587181223,0.41759910219700974,0.4268593298306428,0.4479434758402321,0.45853506914786785,0.47026143798248743,0.482827739385773,0.49472526895204355,0.5050913869344912,0.5148527794420883,0.5265357670934906,0.5409699651173501,0.5556731092383845,0.5664110476179606,0.5719007200993601,0.5758921861844413,0.5819075468071848,0.590827800067561,0.6078736404751421,0.6130672615790113,0.6169412765649871,0.6219891940907879,0.629598526062962,0.6388201761891492,0.6468885367088647,0.6518239196127303,0.656204625892143,0.6611315118098914,0.6701112076685027,0.6789535351931621,0.6867911814231028,0.6922936928618215,0.7014684587433813,0.7078873422096841,0.7141059440512723,0.7181229929110852,0.720303393913382,0.7240381896256862,0.7313365765497393,0.7398267290455851,0.7464376178000299,0.7517332864826921,0.7567358228247378,0.7639627991593952,0.7712640047335817,0.7781491240505698,0.7897926052523794,0.7944276862761962,0.7985458451166388,0.8034019593668944,0.8100958084839154,0.8174797226042462,0.8226742537384671,0.8256505566161838,0.8280782620940619,0.8325797436279466,0.8393167647959624,0.8455369302619797,0.8489174562376266,0.8502465674320806,0.853290868995847,0.8699737730604119,0.8788480119797881,0.8839023414307395,0.8842598102310593,0.8844075113376996,0.8895897073767518,0.8994161902660319,0.9087940497802429,0.9146517019219174,0.9178353106969944,0.9222401926567767,0.9301882743344647,0.939944349772245,0.9485365779916453,0.9599068996445561,0.9648993955027529,0.9711116417857787,0.9772461235747182,0.9814384479766951,0.9850621512910496,0.9897951993845768,0.9955981466451235,1.001804037915381,1.0068706143812143,1.0105587364202517,1.0138198507033398,1.01720510893763,1.0210586425259658,1.0272520885048726,1.0375684543019994,1.0411485205457771,1.0413756827215843,1.0414041910146468,1.0410959420006685,1.0442561924282336,1.0466969282794152,1.0463554614801767,1.0452664257307382,1.046136281722165,1.0491770339149147,1.0539809742661184,1.060073849870548,1.0649666488971485,1.0694813319035334,1.0737583102639379,1.0803580399504773,1.0881102258523945,1.095019261943699,1.1010670142422947,1.1076624403396984,1.1159103141279922,1.125461827185728,1.1346947598998904,1.1423446567019362,1.148238681245886,1.1534986697820144,1.159078769420455,1.1727861091360892,1.1793882833494689,1.1851050046873426,1.1911190896512767,1.1969484781368613,1.2017785197904405,1.2065619282748188,1.2117895596997665,1.2157452361121066,1.2203028904485311,1.224346035152225,1.2293284566151899,1.2339893977265872,1.238433153383929,1.243462738002488,1.2542736847859852,1.2573812879332327,1.2620316210953746,1.2658813524477728,1.2729864948457659,1.2813973849022073,1.2882732579504936,1.29301183413761,1.2978276204197892,1.3060986046731262,1.3175817673537487,1.3300369332912734,1.3402363362935874,1.34752200709928,1.3558688487520032,1.3831349682490672,1.3961126008893627,1.4051612993896936,1.412652947543557,1.4225201980081428,1.4367627521669621,1.4520091665570305,1.4644383293662706,1.4748255172262665,1.4850824943357224,1.4970769512356756,1.5104435060569585,1.5237673463149093,1.5457409816741918,1.5557122288242295,1.5684728617517527,-1.5584673768602317,-1.5438810919304138,-1.530392479803836,-1.51699245983053,-1.5034589227675377,-1.4897410061406926,-1.4766892413004844,-1.4660572782758383,-1.4584935251035334,-1.4520846187761765,-1.4454609224293917,-1.4390759454046185,-1.4316157961519878,-1.4289593623190646,-1.4253256004101333,-1.4176236559017859,-1.4161038719923995,-1.4153206412547326,-1.4118588787669077,-1.4093321766114635,-1.4048371051866624,-1.4046042881507554,-1.404141038631112,-1.4006789679153142,-1.3951966219657759,-1.3864669643522602,-1.380537824059282,-1.3722609557529453,-1.369623143303949,-1.368419428137496,-1.3677463588434846,-1.3669396659621242,-1.362269335395376,-1.356993285891384,-1.3511651742067985,-1.3456273517659616,-1.3400131005307228,-1.332886996526749,-1.326189622957813,-1.3177340680317142,-1.3110181282744562,-1.3038884042506842,-1.2991654035760725,-1.2927255329750078,-1.2833467083702697,-1.2780821467367556,-1.274531066424693,-1.271202049217968,-1.2635612291638951,-1.2561997845770545,-1.2482584049011687,-1.2413018938564657,-1.2344838284157844,-1.2276902037485076,-1.219514434559736,-1.205415064015264,-1.1985937752606588,-1.192832364764437,-1.185502050093247,-1.1804501282553488,-1.1762732959853244,-1.171882790049684,-1.1703342693747663,-1.1697654437662903,-1.167408875146243,-1.1634627474793797,-1.1607373928802693,-1.1578816594600587,-1.1558607628370283,-1.1481352201052177,-1.1408395820607613,-1.1367874349265652,-1.1319880326161387,-1.121546065419304,-1.1143558994844136,-1.1048375885050772,-1.0985854546324996,-1.094320941559556,-1.089684898128601,-1.0895154495711836,-1.0858630121174135,-1.08092433485947,-1.077016886571875,-1.0718618080562812,-1.0593742052600632,-1.049088416502818,-1.0389200980805104,-1.0289463411001998,-1.0187056651541073,-1.0086330112265498,-0.998368503717364,-0.9900387458302046,-0.9834941672058601,-0.9784901670148645,-0.9735584339051347,-0.9659506806003625,-0.9581976974527076,-0.9511123167693807,-0.9458414594781814,-0.9289838921498844,-0.9200875895384459,-0.9126482254770167,-0.9064030566589889,-0.8985672966948364,-0.8908170644820356,-0.8821160856276721,-0.8727299300228909,-0.8626405496253858,-0.8521891447946018,-0.8431644464682699,-0.8361246765849024,-0.8260366382285735,-0.8178309489613635,-0.7999542064248991,-0.7926997405389267,-0.7846591102005803,-0.7776655593799884,-0.7715267792908267,-0.764871355351536,-0.758410063887185,-0.7522515280073259,-0.7458252076956342,-0.7389611525531136,-0.7298937128979885,-0.7211736708187787,-0.7159058059666452,-0.7146768726825684,-0.7140705871343793,-0.7108681396474813,-0.7059749090036237,-0.7022976221540389,-0.7000813798918741,-0.6961918405917341,-0.6917218504992052,-0.6859036571424056,-0.6791877758577788,-0.6732808673829502,-0.6680920333358858,-0.6595202558868374,-0.6558793728634155,-0.6527878139000052,-0.6511092451718564,-0.6452755098286518,-0.6393107988322312,-0.6338017246338709,-0.6280945097539968,-0.6223193611518606,-0.6152489547527825,-0.6076585544059055,-0.5994651177877351,-0.5903392850851611,-0.5825942508451899,-0.5748442730929646,-0.5676530456344875,-0.5587993738724643,-0.5507037062849643,-0.537464177410762,-0.5285766359400893,-0.5199208446653883,-0.5126265629795267,-0.5070711702806344,-0.5018397095455007,-0.4935121667564607,-0.48277786038204396,-0.47373687679853416,-0.46947885591173766,-0.4644864154821785,-0.45296889343565655,-0.4440694177894541,-0.43382688781426204,-0.43382688781426204,-0.41572345582743847,-0.4084059864319502,-0.4050522993734893,-0.40342274495849045,-0.4009916813818474,-0.4005711138746558,-0.4035280501645497,-0.4054354511385402,-0.40360749142402874,-0.39949363529794335,-0.39619921131415364,-0.39465164389838325,-0.393436551388994,-0.39156358972870164,-0.39086324782951337,-0.38023549117154254,-0.372558006392854,-0.3640846639473914,-0.357062765376581,-0.3491990757850517,-0.34465724688250005,-0.3397347635974267,-0.33155105166467014,-0.32296372837616133,-0.3158455229591392,-0.31489235286224215,-0.30896247468790095,-0.30025937760675014,-0.2900346571956814,-0.27114213288076855,-0.26297301936944495,-0.25280451748860167,-0.24269915587802215,-0.23362022368181334,-0.22574502239388142,-0.2137589594027324,-0.20182076240313684,-0.19854493721811128,-0.1967745752676439,-0.1899002185409732,-0.17442334392381842,-0.15876406200005244,-0.15194496027905358,-0.14425329813457805,-0.13440518820363737,-0.12645870278853588,-0.12470406205250097,-0.12458139621211485,-0.11974720538884055,-0.11110812232075917,-0.10315682425921059,-0.09550729616578268,-0.08704592030734849,-0.08000342160009988,-0.07508351141776494,-0.07066013215009827,-0.06463117628257209,-0.04859654745395327,-0.04479861178384515,-0.04022837565744876,-0.03259807164293051,-0.024651552222558007,-0.01850931113659072,-0.01472956651889724,-0.011080562636392021,-0.006528547554610088,-0.0037884898941765834,-0.004519246507628371,-0.005073914035435789,-0.0014606898250698723,0.004819461310764728,0.007568113762036821,-0.0016679618585274784,-0.002277884939260522,-0.0011652880954039601,-0.0012504420189226706,-0.0033016221408398556,-0.0034901530438823493,0.0007219111304316411,0.006202682483463685,0.008568453797044418,0.008132797022242799,0.009555092068615281,0.014829375488260367,0.019938598031980295,0.022295111119401093,0.022218013461227877,0.024985315095345975,0.02846936070301144,0.03178760614113742,0.03537957620207223,0.0383620317779997,0.03943023033384885,0.040056415389644,0.04103315241560435,0.04298956276797184,0.0442521093221694