Acceleration x :
0.5637038137918338,0.258587296365574,0.2566427564353682,0.2584362887886353,0.33100787799730896,0.47083103043567387,0.5677538563676178,0.4612821712478995,0.3043200880852528,0.2563194244988263,0.25107487490884955,0.12148572351136244,-0.37098183219563213,-0.4335075907461345,-0.33159466490931805,-0.23282369036003947,-0.028469239101884886,0.02564422654272057,0.0570537934128195,0.06462522874751593,0.14654051452726125,0.13566472671781665,0.17872562321396543,0.02139803349046269,-0.140403345212806,0.009129629699527868,0.11942279963218606,0.17510617234148085,0.21431615642998367,0.34996903744637964,0.3884724807007238,0.2882671259667724,0.20988255789671093,-0.11602650825739838,-0.15336530077969654,-0.08558814277332276,-0.12253199942759238,-0.17151499771540984,0.03947759464927949,0.09625924745667726,-0.0537386455494212,0.04524959761288482,0.22450833675628526,-0.06922887748491484,0.03407132657539332,0.16500243748361243,0.22599411833463234,0.07454730516185518,-0.08185323969447053,0.042711507669743146,0.28578696305621415,0.18168147734487428,0.21479550091214478,0.33621611416488884,0.27803201981419695,0.4930536758987233,0.17156265451572836,-0.19699894652934744,-0.35480606568139045,0.49019105300921945,0.6019985827315598,0.268570985040348,-0.34875396256819363,-0.30552792950505386,0.21271781785525382,0.38241573794502765,0.6036202656492591,0.5282068588770926,-0.46884084299914536,-0.13684895893316715,0.38323359366655346,0.9181474028363823,0.8910385197017341,-0.5136570130642503,-0.18245806947425006,0.3685132866576314,0.42015334792602804,0.1564376756960526,-0.2310120743608102,-0.7009585039816796,-0.17168162298658862,0.07133799685968552,0.16175812180014326,0.018013168833631788,-0.41215551757253704,-0.21124153475761412,0.3048295537110418,0.2462552909989841,0.5139330535266549,0.6016523631097749,0.3496277131954208,0.04097168283166829,-0.1596906678763218,0.28067509993519635,0.4848864803276956,0.16915139212291685,-0.0876276583774481,-0.35983722824901343,-0.3551290505580604,-0.09050145111493765,0.5963941503206268,0.6259308816567063,0.09092335718828252,-0.18491384686222298,0.32156266184709964,1.0006855469219387,0.37887846719697116,-0.3647125792004168,-0.7671262357637286,-0.3985839787399396,0.2541218413893133,0.08997257753578014,-0.5270131190478802,-0.8225623648468404,-0.5359784427266567,0.21510047520808875,0.5211969801150262,0.2126949484363198,-0.07250236903051846,0.3053448828220367,0.3862644127298146,0.21402701902398838,0.1756993524616584,0.49763537766579535,0.36658633718304334,-0.522502802016586,-0.37108869010359047,-0.04310864462801255,0.005239347116829595,-0.694211952330917,-1.1913808449961245,0.4446824071679264,0.6165043702069669,0.3359627969909459,-0.3448326609386131,-0.26249696235628794,-0.10058882849304936,0.17559243975477293,0.5333353443393484,-0.3413936264006421,-0.6164366387329995,-0.19025708932001142,0.32328623423669484,0.6767177236292511,0.507661535509117,-0.831483337927237,0.24193293428784235,0.9699497785270214,1.048410663236305,-0.27780272283665836,-1.2622282590270042,-0.8609807966988533,0.5156618500806391,1.016176692172885,0.7128873536411673,-0.11804672550600953,-1.7153541579566896,-1.583323814819008,-0.5330374573713168,-0.1605729671361856,-0.3011290004263632,-0.9556297228820622,-1.3995805278398095,-0.6385729941520839,0.6038027826093136,1.0705476762425155,0.5695414339041337,-1.0497561595611273,-0.8361926115967333,0.30114295588647944,0.6228076350696384,1.1124757236506788,0.36169929579384624,-0.20440812680730594,0.14709545412943698,1.0482069573577493,0.9994399307750165,-0.11107351635936646,-0.7405082048859447,-0.9352809084668755,-0.17552520147114992,0.6350711965762078,0.5356352918447926,-0.4652611578814685,-2.282912345621735,-1.8841170256860553,-1.0948537769161164,0.363362406700477,0.49092861003614957,-1.8332685897193848,-1.1434787646796554,0.417935964137502,0.7599910501215607,0.47560595321990545,-0.21917272961568085,-0.8099426833789796,-0.3752919870123267,0.5515503615962342,0.7914327748287469,0.49773449065871533,-0.5459295260397717,-1.042421505824104,-0.5964379163971171,0.7265468264855444,-0.3253604466948658,-0.8498601946823299,-0.6997789388082921,-0.20449604255277662,0.7101804327700286,0.4061841150127351,-0.12794539364529772,-0.6974608711242676,-0.7722038312889635,-0.3494679560564458,-0.1369184348396491,0.3842178189309314,-0.020336427574360275,-0.5624227610053494,-0.7358354638345539,-0.29026151465438305,0.009025725796236657,-0.05988790716046933,-0.470645663931407,-0.8137375456172973,-0.5121878903597593,-0.20849925031214953,0.5804816743850708,0.7944307876009493,0.7075787989042699,0.1650079356426373,0.06313019528363366,0.20414313746187834,0.4131903405129909,-0.021858869634976144,-0.9806890530757606,-1.173531957637891,-0.9323412017531693,-0.32645799614060667,-0.345745830260776,-0.7681117396697401,-1.0456090498190374,-1.060958959968388,-0.4796317746698856,-0.13481811069268732,-0.12130883257449604,-0.4098276226142421,-0.6809279617354274,-0.04787078099590726,0.44618013491239394,0.3785276079326868,-0.18371265437891707,-0.3227911076635122,0.10011413278654217,0.44159941952601073,-0.3065567062972113,-1.568931716851145,-1.8442583318978547,-1.6146787380255758,-0.9635520403139293,0.583760330729559,0.8095647899772972,-0.5533494103748351,-0.7138722730252891,0.08978574059363455,0.6094727180045098,0.7680909160774201,0.2851322072082199,-0.9137510675735772,-1.02161544916071,-0.5792523883184417,0.7362740013822913,1.1070137319177389,-0.2100831402364187,-0.934080885027349,-1.4892786266826092,-0.016442737754201516,-0.09953903631232679,-0.3146297207787633,-0.763322751827538,-0.6419202587533742,-0.6248041426490992,-0.1872681731697172,-0.026366460419644133,0.12977941327258014,0.040540154980029906,-0.1375786888466682,-0.15480514259077607,-0.20937596008144319,-0.7904614455785602,-0.8018182675037533,-0.26508723457781597,-0.12261742182187735,-0.408639180014655,-1.149124661612138,-1.241457127546519,-1.0184016016807407,-0.3659563687164336,-0.11716800644272006,-0.29895446939887477,-0.48916967407222833,-0.9827223855342715,-0.3323422318736091,-0.06396892482982948,0.15400308722658082,-0.42417208204809576,-0.6348164911627769,-0.6931049409370869,0.35314412381853905,0.5516514838831499,-0.1112624082612805,-0.39991153754927217,-0.4917650973929092,-0.03182041041002376,0.5260322182517498,0.38276955635137855,-0.043726918090251275,-0.5542710552643985,-0.2525800553074106,-0.015719075680238892,-0.2399006978078745,-0.6002797961149364,-0.6048100964883342,-0.4793469298465177,-0.31133312691878523,0.08802890525525435,0.17330294057810677,0.03201283912602812,-0.42660120889116077,-0.4631183371664956,-0.015496915121318306,0.21371457380764186,0.4496980068402365,0.49666854192763565,-0.029328152919583954,-0.06726096581227611,-0.04462631004881114,0.14551434981729836,-0.29642836672104894,-0.42345385077614334,-0.49775202631540594,-0.521081500509195,-0.30169279005527494,-0.2672355169191956,-0.22755860943868755,-0.7099948470700532,-0.7526438291639089,-0.4580985362431034,-0.9087189186252653,-1.3460320391342042,-0.5781814711512997,0.6891876213628798,0.7250698127355426,0.11213691694033331,-0.12949215729641728,-0.06851123073485214,-0.6535518059667199,-0.9779051214456558,-0.21975716017382219,0.5030696776742115,1.2091807055808603,0.27666951755564656,-0.3066174600411206,-0.6222674637783319,0.31594474890008567,0.6570893324431032,0.32609376593809575,-0.10396235091360286,-0.22302562391785904,0.1690179384689778,0.06694992710172663,-0.7728090306404978,-1.0636998561743647,-0.9708994074020534,-0.19357792257210238,-0.1940856894311495,-0.521453037235327,-0.1778374239362776,-0.7124940434746444,-1.252474634514749,-1.6636702940791845,-1.3146307925678788,-0.2628004753475077,-0.09413476611599325,-0.29945688422936945,-0.835928773028776,-0.6581606149364262,-0.09917809404544532,0.3927944355530664,1.3489433965362607,1.2057534345459193,-0.787879758522287,-0.33019937462601806,0.5956567028915509,0.9033312342375517,0.3407191246725619,-0.008515816641630954,-0.2865183643369935,-0.2000759245555848,-0.4539674643203616,-0.627930165715143,-0.4609977282833308,-0.24746097699431702,-0.25638264419445767,-0.07767210895176976,0.019342703829274978,0.37970231426786627,0.1881579250836745,-0.1818445041531697,-0.38182580922786147,-1.2674256815396248,-1.104413486291468,-0.6254244665045291,-0.36855657781008627,-0.2553585070447996,-0.44897429567556824,-0.41632684844043105,-0.09796761314398608,-0.6134478321805596,-0.8423302375689148,-1.0007684028998016,-1.0596414476290346,-0.7558085037399083,-0.3243516715111211,-0.09961808376475237,-0.023990589000622276,0.029869796932057942,-0.2659591951067559,-0.31702666238527744,0.05569940596206579,0.6146321465943009,0.11753991762818768,-0.21209283609101548,-0.806879861742258,-0.7140478487879037,0.5974372661653906,0.3173471265112981,-0.46809568718764927,-0.7894040454801171,-0.872057121182233,-0.6177065856035798,-0.05048847551390063,-0.040024108916404656,-0.5088928308697417,-0.8235510836232454,-0.5290296099694446,0.11707681189477442,-0.08742918579643592,-0.3808454929536208,-0.03883349262604024,0.10037175167626701,-0.048552840409358027,-0.5509637208146975,-0.7005284420013427,-0.4908576636917889,-0.2222880668909289,0.15248574146619065,-0.3295196122009307,-0.7374147689152508,-0.9384559583064168,-0.8316730152804404,-0.016931575008848447,0.16097245131516827,0.5062625188987702,0.22583200484178959,-0.11956700300900265,-0.06950469418503344,0.1905235582364723,0.2999147109994665,-0.048895909092831424,-0.6305242738615721,-0.530693999517709,-0.28704405044522135,-0.2389802767610177,0.1598571287507191,0.3467431342024356,0.3067137234898284,-0.03678082071281969,-0.1253266899137292,-0.23269299491876735,-0.37051253418345004,-0.3772570400075987,-0.495883675160259,-0.4478595028340816,-0.3251524299673736,0.1395350379456766,0.1349897957314737,0.0009273222153929964,-0.20086256315493956,-0.11806806055498309,0.5473738796291873,0.7774320873312651,0.11788659390769898,-1.4306241931401191,-1.512810747309029,-0.3945632353238761,0.2989731193004176,0.4221823695356026,0.3447766564350575,0.23577050266796723,-0.02837393235111376

Acceleration y :
0.507161111706309,0.4194988660726696,0.24422298145378007,0.07852166585265659,0.07471589406125713,0.2017394738536328,0.24436308404421433,0.3090713559992611,0.268291656642314,0.1453197405606508,-0.06445834318143315,-0.06862095645333174,-0.082746864065947,-0.1231033969742246,-0.15138747050124218,-0.13931607056590728,-0.14534640023871323,-0.18860565058486536,-0.1896582101114094,-0.22796790262563152,-0.1897420707362704,-0.17670745179196817,-0.13037109555541537,-0.14602759656906128,-0.16161708762794733,-0.1836588418324478,-0.10420151169802994,-0.03287655469971942,0.04731287768508773,0.2783297789180651,0.25136430457578973,0.07199107677382417,0.021489874209091066,-0.07639170918583404,-0.10328503617392852,-0.18816426349291576,-0.10982237465395592,-0.11655362827088683,-0.14464557675928807,-0.19064860938824713,-0.2912975979701616,-0.3055384326327592,-0.29747703552376475,-0.17547885984508318,-0.18183226572610436,-0.14847725474350154,-0.10031183818257414,-0.08546454379311762,-0.10857141561163589,0.03406703627605457,0.13155430485745892,0.24033649540925398,0.24993125783167777,0.17116890595778822,0.1650906272237189,0.1139424411254935,0.14204725822862238,0.1537280148785561,0.0784873982568737,0.06053695935346186,0.026587498742202294,0.06869381162698845,0.029596163055871146,-0.024824439159012397,-0.03407662380501861,-0.044637662559887395,-0.0005730102976101988,0.10925206395271234,0.12304858891391195,-0.06838517036950215,-0.06370088501079008,-0.02887161620756378,0.07681976643875241,-0.05024025464018341,-0.19681259364439174,-0.2529725434900261,-0.31903792914245277,-0.12958103202311322,-0.06905344328619539,-0.02842628587614745,-0.17144823435582218,-0.22516828023605048,-0.255602983325161,-0.1866229340687394,-0.08765862890444695,-0.031934234631597065,-0.0438426305915229,-0.012047725657158297,0.0787874223830644,0.20371534050386397,0.15024060202105902,0.045573541470780035,-0.17825959487110377,-0.20384992666896432,-0.17946670563854275,-0.05038501057284884,-0.08007697813641279,-0.12909642684394493,-0.16251253863032905,-0.1793155153985135,-0.11009765706453471,-0.044710485767503264,0.028873990827740635,-0.06696896516233682,-0.09761143838376737,0.01749515685849474,0.1214797138956841,0.14695952539062127,-0.04040118490075692,-0.09004866584613919,-0.193975306125544,-0.17374396234387532,-0.15013974459562449,-0.1328308915313799,-0.14279696235107256,-0.1844327488143928,-0.16717322391774506,-0.1574637673407793,-0.1125327295911964,-0.1462652869156096,-0.17239965332914142,-0.15865283099487423,-0.11314177400078623,-0.08641923243575729,0.025306384306924883,-0.031126475612400097,-0.17432083065006881,-0.19085664438204838,-0.1408872928048484,-0.08647052423157729,-0.06750303093984257,-0.06066392390110995,0.08019211981552653,0.043784009439195505,0.035919128132855985,0.005568567083930247,-0.13936420229026117,-0.12907821533381938,-0.20149318920867518,-0.15379528969479725,-0.16221412193933502,-0.3214065214373171,-0.31739118484873324,-0.21939329529749227,-0.14852938678953795,-0.01604342482186621,-0.18184172767419368,-0.2721157815077342,-0.24363935461323707,-0.13759657156323082,-0.07505671142213978,-0.308556647942774,-0.3829649693256244,-0.4720809208989143,-0.2294468160717748,-0.06113304838335607,-0.007770685375487665,-0.19809771981779484,-0.4689892019612714,-0.525819160022959,-0.2567131182578392,-0.07245794080032501,-0.14416061538709327,-0.19975061985766515,-0.2100016724980436,-0.05238297032387927,0.02889458380790893,0.05359570711450651,-0.03230052664374234,-0.24979555742172524,-0.2326855605309829,-0.21623660309854895,-0.07835039180582389,-0.10613162124408408,-0.2509479240609333,-0.2823705787414685,-0.2768189359636977,-0.13297260155701077,-0.05015263115565758,-0.04554321026459802,-0.12652029274562374,-0.16641429530922322,-0.13273948692088014,0.014298958058003335,0.06184605092434212,-0.21366267922362311,-0.3487780740961432,-0.3927451530512422,-0.26686430898662655,-0.026593670471373478,-0.1882903192916885,-0.17097687225071712,-0.12238712019734084,-0.10097844886514358,0.027564501964638475,-0.04751688495774287,-0.0924024441643618,-0.08781849564127624,-0.062403324047499334,-0.059693937224638643,0.013803439900820376,-0.010534302586637205,-0.13750037204660476,0.029346531109779604,0.026300861537258604,-0.02562215855809627,-0.21761627568760886,-0.2641905597327277,-0.2771197455411777,-0.16178243425749242,-0.2278222288109362,-0.2513483946206048,-0.3367667337849736,-0.43339992912057784,-0.4608339890889823,-0.31273196086604144,-0.20422571944510562,-0.19131947612082584,-0.23816236624056472,-0.3209189571160823,-0.3317392244791612,-0.4158096196332946,-0.23974682242041453,-0.21206998493839055,-0.20256659059384838,-0.14727842774721792,-0.1413966853654012,-0.16435858662212266,-0.042568815830000675,0.10115638098162598,0.20757391562815755,0.2162395987732336,0.2093555200816132,0.11441412289100698,-0.3347961278317496,-0.3565917069891468,-0.29165746252480895,-0.12187761803893371,-0.05969359016476664,-0.2920815514220856,-0.48405386542845513,-0.5418077334020287,-0.3884806274745613,-0.20547990249097345,-0.15315240694768725,-0.13020768515462985,-0.21083951156167313,0.037451395184453576,0.19448022344037888,0.2007172546664253,-0.13422365193087607,-0.23396776409493758,0.19588068308914078,0.49247295340131964,0.518786156113632,-0.19016188531722872,-0.5146556321801617,-0.67097326169312,-0.4486773585556075,0.16450782236708328,0.31389859349261967,-0.5135407662734389,-0.4457570506621152,-0.13821184478420764,0.09424065590957179,0.2697532901600934,0.13955756030473856,-0.2299793885785155,-0.39124530641492455,-0.1822380152490921,0.31260358524601906,0.2684693330304697,0.17304355898955837,-0.11252690263860858,-0.31737964054141193,0.03010147081306204,0.14784933210350573,0.16015245843548326,0.06192033087010495,-0.07459480213196948,-0.15111272694678046,0.0557046255598776,0.19770000747079028,0.12060214560986496,-0.0019059709040520829,-0.13511773296007887,-0.12271215090062469,-0.0759253155167913,-0.20985044572539627,-0.31007790269330143,-0.06824371150562074,0.01611670240391977,-0.15603683981020003,-0.29388984295306725,-0.1512437877142336,-0.25732701237248257,-0.10326550035639666,0.029710149390937295,0.2357257502107881,0.05643194888716098,0.0023037286314181982,-0.043537820692360396,0.11723151839929633,0.21709543015128,-0.04044339377440046,-0.12444905769582837,-0.08135925476560368,0.20652484496664256,0.17355108838658778,-0.11119331594728864,-0.35988004447743294,-0.3511415152918547,-0.28344144110968333,0.04710722187804058,0.2967888523302041,0.17687999534728005,0.014095211080252192,0.03659445869470946,0.0461689911798574,0.0036285454965152893,-0.17541746678035705,-0.3031991760302335,-0.1648849303174764,-0.04168117367473896,0.2908646499129943,0.31582945195734496,0.0653675715474179,-0.2682622478847392,-0.31734877047911286,0.057139572000131006,0.22616313649229705,0.3869711727596819,0.29148300100704655,0.07235522477794439,0.03159331452272599,0.2789526052578352,0.18589418140277264,0.026025821155274752,-0.2004977484305389,-0.41461098443325606,-0.05504023423385806,0.05521083242725581,0.31818061819337307,0.18777058800021185,-0.4060031324226409,-0.4890476185951382,-0.04439633721783757,0.04211320841645356,-0.07363880744823255,-0.29985379285877567,-0.20043829159457235,-0.13318900252035817,-0.008766212918591918,0.13793385895988902,0.07604282268292736,-0.16089154983237386,-0.2628704170448705,-0.013528053600608837,0.11739470960437319,0.103609939013049,-0.04333220598450862,-0.21785236773211508,-0.22729385755527765,0.32733466937728223,0.28606453788857905,0.06841648338979575,0.03920823508941103,0.02933939583280589,0.5731855990927666,0.691684041288495,0.5557879626333713,0.2863506248209625,0.20934110796377062,0.34724191403742877,0.24261744595328344,0.05155323236831463,0.4084642983717844,0.333802659814991,0.206908309592586,-0.09751709289751015,0.02333541074423119,0.39964075778387487,0.49175472212936727,0.3850618685396388,0.008856975924986181,-0.03325520615322748,0.1944893383285962,0.0883534153687302,0.0710846294533927,-0.08041497791912407,-0.266114477000013,-0.17488905899208038,0.10504888577498495,0.13972234981185755,-0.1532364685019478,-0.31988369578421116,-0.30223860563607885,0.26173533033402635,0.18667093792892991,-0.196325412915647,-0.43498157228883355,-0.2765174870654009,-0.1861411236348562,-0.10041780104138888,0.1059663476797752,0.0010508780985252087,0.275520767645631,0.8096598478496074,0.3684645886776969,0.5601510897463188,0.8251496048610657,0.5546792342064902,0.5852812201539054,0.4152249516131356,0.4683207281151786,0.34254429427310823,0.3022239560562186,-0.021147191401396412,-0.051042926492309196,0.2395640679983422,0.2723440007730387,0.2844758987239562,0.017451379365561296,-0.03676681730364216,-0.03667545379233779,0.09394834016580134,0.13082869399664923,0.194017245571129,0.2043456925629638,0.2785009159675799,0.08362495294157415,-0.39119076321609314,0.30556853551007807,0.13144680762868374,0.2756238261613063,-0.06945665379222482,-0.11120865051373839,-0.12366565223317592,-0.04015215117628686,-0.09200175440898165,-0.15974848074447362,-0.171195519970078,-0.13030625015827826,0.17860396959567443,0.27192256049057467,0.4199174202783033,0.2877886582674458,-0.001505440265348443,0.07854637103565036,0.22380601543951778,0.1891799981404096,0.12442869989438914,0.08200033828127197,0.18090481215026227,0.19937659891350193,0.10045538397226482,-0.1592142642699182,-0.16773487638849763,0.03955295687385369,0.16925551008451728,0.17822850561309606,0.10758402114263735,0.021563681514107154,0.02825886145394761,0.14569453782294875,0.16948109900131822,-0.05943056901413947,-0.15486277279583735,-0.2875738099403679,-0.1412617704067379,-0.057839669393771324,0.23685853536669163,0.2893329285673797,0.19469238662002608,0.0938078996486496,0.1653514883833006,0.24282732584429903,0.2409300043229945,0.051721866933489215,-0.11018493348918855,-0.06497252151495776,0.13929980441769585,0.2673560562926344,0.20662795828124508,0.037728141183045225,-0.09247230366333387,-0.16536118779340758,-0.0033833083102173984,0.06092096283552236,-0.20412242346741258,-0.4236960255015641,-0.2768585007891059,0.11972223923648707,0.1442551344032865,0.5110255320494994,0.814999674507603,0.6808301273841411,0.01560069629784557,-0.09837435818081722,0.006364350254254532

Acceleration z :
-0.12301806591148487,0.19276399410702286,0.2590571606333367,0.3742456197645515,0.2435961547923274,0.21100361608220264,0.2025829937393777,0.3165660956688225,0.3359923518789932,0.3039690461578779,0.11939233142868615,-0.004286523635590856,-0.167732227773685,-0.16480592853082343,-0.28094518558084963,-0.3162377770299092,0.024156937993876634,0.04176411641757004,0.16294300246946514,0.236778601998277,0.08594891151026822,0.023126925942569505,0.04648581117722206,-0.08681098083285614,0.030072541546099816,-0.14134687314061448,-0.31992147051133213,-0.23126809494849293,-0.11463091657999902,0.01290758818128379,0.12253073905226773,0.09019414786458946,0.0044136054871923985,0.01529292725661653,-0.006098238101642345,-0.07132000911184586,-0.02316511851151008,0.04073067258344963,-0.12054962997133843,-0.05328754534763284,0.18961093690358102,0.31842746909391134,0.3590519596228376,0.014710355295421322,-0.18039781247619538,-0.28574310564817856,-0.07151175512454938,0.102949374478776,0.26155597344543785,-0.04720533935711719,-0.15925603931872173,-0.04756972482325509,0.08261584896426648,0.25832634387444703,0.2723785606297664,0.06272185651133767,-0.03293383099504281,-0.01781604110962362,-0.14126343264086172,-0.24417826552921904,-0.18841679521556942,0.046708445518533696,0.05521723933515604,-0.07101680664788,-0.2360559320132248,-0.21599992653215302,0.03564345071334392,0.10643953641578555,0.27648900988958774,0.05937795291091315,-0.07576379111241549,-0.28092231616191565,-0.16508474547220392,0.09903282208954915,0.23026892784330993,-0.017789814114756882,-0.0925225634126924,-0.31830808049794285,-0.41077290410771966,-0.325995420130156,0.12532597752767613,0.1513140673383139,0.1285528854186181,0.3095297307586297,0.47622207582425324,0.37742655135560776,0.3099590255539864,0.7895039987232536,0.07246237951342482,0.1295979740247596,0.06190591875226237,0.1708291160767898,1.0168254384052007,0.4490691343521699,-0.21327466628672553,-1.2341541110567749,-1.144240469767153,-0.16418580560479312,-0.026480410222092177,0.32366496788859367,-0.857963786965236,-1.286064038775116,-0.757065079672262,0.3723780723270029,0.27626581385927274,0.03572865162863163,0.47709220972228794,0.7441347978852689,0.47269401129595934,-0.006414910826890263,-0.8261557131636887,-0.8168350001759827,-0.09938456726982257,0.3488928961148485,0.31088819616287944,-0.010739501735958038,-0.17666587767256423,0.27967032507313416,0.5512770610801875,0.31323209240790456,0.17171296797292307,-0.01853795875107171,-0.23546910856859757,-0.5996882599625736,-0.45460243775565173,0.6116827952694147,0.588097994607687,0.03549805317657301,-0.5449376289255917,-0.44102304441016166,-0.006550581554090604,-1.0010130253106355,-0.6686069709531962,-0.31490579777378586,0.5134858577484265,0.30389293044805527,0.0873841958772391,-0.08582675556847826,-0.21128723706286398,0.5606369005018845,0.669647639112547,0.5210915104465559,0.1826787447539158,-0.46784507342744613,-0.37230844115689393,0.0722568424373865,-0.010744108270772266,-0.1713274209877476,-0.1680586649827659,0.16798488736050202,0.43847171595953405,0.17203843706762417,-0.24565754430154338,-0.2876284810033627,-0.11371338160997256,0.21155830908920614,0.6785819831311702,0.6172302733287215,-0.2839466689517721,-0.7989588594846427,-0.7440713772602379,-0.1749567174008116,0.3024485768586397,0.13428526419131084,0.502407889297232,0.5216680316928773,0.560001086816378,0.41243546702507883,-0.062182274308498015,-0.7740178949736058,-0.6548107930518686,-0.3184691893437877,0.32201968489959837,0.6199443545930087,0.4118040007211268,-0.14377225539032368,-0.3340854222791269,-0.21450926784928886,0.10555218652146868,0.22758695875033735,-0.16985970478905363,-0.8191443730968981,-0.7528452700201421,-0.1600130864974111,0.3207537200843915,-0.08691251411172561,-0.49090460810605435,-0.8872694494917989,-0.6672546795614064,0.8662361599437892,0.2580588155120611,-0.6279867182079703,-0.5483502869132906,0.16575183107880875,0.6227539321210235,0.8706156171370297,0.43160369335357096,-0.613743600256741,-0.5070294481506571,-0.14490078449621796,0.49221649442221965,0.5595375609578565,-0.2514754733326845,-0.8126062034998088,-0.0628238784139743,0.3667199369674548,0.3273999531658366,-0.0007545636741859197,-0.4293396939443424,-0.19639740043962373,0.22953752656253054,0.0651184053922072,0.050569367863540535,-0.07790289463349617,-0.014716801019228296,-0.016400067656254395,0.0583884030174464,0.1410567676202394,-0.3555502351121977,-0.4438984171833843,0.047924570709490216,0.6900155966196209,0.6594690671864897,0.07774320142660289,-0.9850615690715611,-1.0392848152335732,-0.3487603557763621,0.3580779634915292,0.6555017709907144,-0.19387319745793938,-0.8201135103899985,-1.4538041393280028,1.2123740947946906,1.936819711217284,1.1229041786845773,-0.7807223610483109,-0.8916935495443642,-0.13243952672677115,0.3961145198864862,0.39558297029305245,0.280225821797736,0.17158722270140422,0.0030135685322384234,-0.09598251287452876,0.08255932387090288,0.33272107512336224,0.0097076242378389,-0.7203017215508967,-0.12122742876820265,0.24559100013766436,0.2918354129076004,0.41843923748452216,0.30737364870328454,-0.16048558111367747,-0.21950767892478032,-0.10294130990332923,0.15819281226769089,0.85554123599343,0.5125049204196781,-0.19003261464806273,-0.11367525068982504,0.5724262320928275,0.507963769858703,-0.2772287406072952,-0.49915202930644154,-0.038470956623693923,0.17754094347404314,-0.2587406237637624,-0.6907397461757063,-0.564228604850918,-0.41855866261310876,-0.17830107765896244,0.17173981944723055,0.14786943417661821,0.03770022341294679,0.10316635083085857,-0.05701993224241305,-0.28643724365849044,-0.2236883621429093,-0.010443270152184414,0.34113767887819557,0.20844392166202888,0.065988228762988,-0.0071249924708943575,0.10312251168913207,0.09988563952660187,-0.11530988442064262,0.2316477601821534,0.3865386265613138,0.5282216180548072,0.03091780129778199,-0.026193731917953118,0.01305854095929535,0.3657761898439377,0.2718130174351856,0.1590596582300961,-0.21442533415919168,-0.24732896637879312,-0.17594929036842658,0.00022716968389986504,0.39081118931397796,0.14864784380374477,0.09181593124698847,-0.018587685352534754,0.23906505070133133,0.3765051256617531,0.21660846861824393,-0.10642592801554128,-0.21826885784482583,-0.06318660164598841,0.4187074599666521,0.62637161116153,0.32505072315856814,-0.08529793678824789,0.511724072240293,0.5463579075196757,0.0873688065118622,-0.2055777185759507,-0.32368191902339455,0.27124497175626455,0.37294725051708516,0.3594033668763935,0.053639678686973634,-0.2213260899909772,-0.5096206336876378,-0.5776829470446333,-0.5047875144427642,0.06123175038432237,0.06121111402167007,-0.6539716388139873,-0.8944761660002172,-1.0223130760360508,-0.5343970918193459,0.03841280126224737,0.20015547433150932,0.7897855190783739,0.6674665687464177,0.747162475143373,0.868929636811465,1.2726796565450726,0.3371250457033515,-0.05419041703806724,-0.5055102757593617,-0.9383074166812002,-0.3591142477367073,-0.47867118600942193,-1.0146562046073377,0.22433287059152499,1.2187287975836545,0.9661818042956292,-0.875421629179269,-0.5397324980305508,0.22880353146586566,0.7991311473116278,0.5346709768572822,-0.2783014478727244,-0.20911807633023707,0.051369532664748835,0.005902682992679183,0.451502097120136,1.041488608888164,1.3084439206264913,0.5925019286550581,0.4663007665948942,0.35854276799168433,-0.11992108627683483,-0.5996791268080472,-0.22108501124409957,-0.033391226223588456,-0.23404329528287052,-0.6475229010660201,-0.7939623663716018,0.880383124044165,0.03266883479974931,-0.6206177238099276,-0.39578269411623473,0.7440770032834261,-1.002283337507397,-1.3602744994983076,-0.8331804241687059,0.06684842578889802,0.7377017691630869,0.5837647511763497,0.21821562982024623,0.2544290441749617,0.7504822672158479,0.30799550692867483,-0.4832513899391517,-0.7530737450137734,-0.27545394948711616,1.4788818819612264,1.402094702617824,0.6188106013227254,0.2078392702997662,-0.26240546641424295,-0.5487040322544053,-0.662054626700282,0.9474471470788121,0.9379611605267971,-0.46195751322619616,-0.7501272432330995,-0.49499859942141916,-0.8766304935123771,-1.7982159810386598,1.6720087910965085,1.1897501750543713,0.9071703009437769,0.14276389119853264,0.18563231559619306,-0.7089747102420777,0.9230425544667988,1.223035116475448,0.37803313894663004,0.3348145037386566,0.8103224764768033,0.6699826432205737,0.44613220411743965,-1.4018828134328125,-1.3274918815761805,0.03748562168104108,-0.4398025992371142,-0.7171618160899728,-0.35780374966003,0.005130360613044467,0.09255515964119694,0.884692730871588,0.7862362290989607,0.368711037719436,-0.35297581804692746,-1.1063437967669218,-0.5252920308763162,0.43049916617777195,1.7236789187096058,1.9923630270019173,-0.23923182210298255,-0.5225205568689852,0.10816734658908099,0.631857495226711,0.5170729955201968,0.38332028556931763,-0.46978769539520143,-0.36971886305511,-0.026878216183930635,0.49004605504795906,0.7007017527416348,0.00930092600842472,-0.3303918649908155,0.44131132329963146,0.34843466748595237,-0.42539800711385906,-0.4626653327019885,0.43102220367118715,0.425796906770952,0.2369464876447804,-0.3145786481786519,-0.9102294693186879,-0.42369153198953713,0.02378480989598902,0.2976340709826909,0.01093879972581053,-0.4232847778195515,-0.3817538765028119,0.21469984025163574,-0.0014515465194272108,0.3362347458001226,0.21320879797628148,-0.18597857175059615,-0.3934012423397973,-0.5486701665174216,0.4885910704666748,0.5920415080690756,-0.015539896888163639,-0.3178110542286187,-0.5832650214932859,-0.1926363674056716,0.6786280872952193,0.7074997423186897,-0.06667554430686869,-0.40305389069560915,-0.26317624985734,-0.263708931961935,-0.12394900835235602,-0.08311647369647399,-0.11809841002747416,-0.033634846270713024,-0.5545879757264629,-0.4984404835036024,0.013122078032046555,0.4764148584499955,0.11496856930283829,-1.2225419261310249,-0.8499308487657458,0.406305037978664,0.6881688727743923,0.490174613331072,-0.04572320647400338,0.5012389916483313,0.3685867902852595,0.3082056060153991,-0.4596620592327788

Rotation alpha :
4.514478579324632,4.513738717768919,4.5139627785993275,4.514337267835733,4.514969176740658,4.515775338403342,4.517558002422995,4.519942524609021,4.522487220007862,4.5249114229950225,4.527785284050676,4.531334896203269,4.534799883497625,4.537636031035214,4.539691297702451,4.541171608466646,4.543176909620162,4.544129887133179,4.544863822520014,4.545605313376114,4.546500759995305,4.547318321809892,4.548123150353248,4.5491336853244535,4.5498914311115675,4.550308517186939,4.550525390061255,4.5505624969601515,4.550485672436194,4.550573588697508,4.552243561459118,4.553659728901266,4.555589442906887,4.55736368109513,4.558459408151179,4.55919471920638,4.559833593122783,4.5604836065140955,4.560841809934051,4.561203861534714,4.561348068399669,4.561131289268823,4.561039865386222,4.561278830969504,4.56083910506334,4.5603431840594775,4.559888284755381,4.5597590771244425,4.559413232811016,4.558956046575455,4.558463625486933,4.558018430773844,4.5574424260706525,4.557324655872647,4.557856287445498,4.559276690514177,4.561471530217599,4.563662811447598,4.564787455292061,4.565470586845222,4.567325530582332,4.570380164831227,4.573106055069547,4.574948764346551,4.57625123718976,4.578141878459244,4.58137961662248,4.585654708632067,4.589465834432011,4.592341199437775,4.595547348864035,4.600364421784511,4.607281265123132,4.621210533930875,4.625307859858782,4.629618736877044,4.635074170444733,4.64115731450182,4.646383397473593,4.649392030007959,4.650762852436083,4.65179956870666,4.653415036393998,4.655302050840506,4.656748545653313,4.657324910969526,4.6576917760977405,4.658919125792331,4.664603153938678,4.669675840369157,4.675649824193352,4.682123312887266,4.687756621435006,4.694118377145285,4.701663299149085,4.709765167805901,4.71692615435283,4.722630698793352,4.727798466196433,4.732896931251112,4.738604284073848,4.7449446390507335,4.751246751779127,4.761860722266109,4.7673000521173625,4.774528443197169,4.783220168518741,4.792654467405117,4.800821490902531,4.80740411576625,4.813630353102991,4.81958096930509,4.8249747689140525,4.829501290111067,4.833045171781415,4.836592596506676,4.841252546013585,4.853438175888403,4.860032781031209,4.867134909712015,4.87489105023109,4.8838919392156575,4.893793803738308,4.903999533063165,4.914611321955626,4.924890063066853,4.934440377223318,4.943718935446082,4.953351810010242,4.962561394087142,4.969826241133306,4.980355758492774,4.986013826291883,4.99220742900991,4.99845430365491,5.00419555855334,5.009486577085933,5.014679030725203,5.020465171134917,5.026860514517766,5.032644026526517,5.038048978298272,5.044279204532027,5.051600640709054,5.059982786589151,5.067648468235992,5.078568441065795,5.085858265802567,5.0961023049986425,5.108146790890605,5.118701129574048,5.126551316198265,5.134072192081894,5.143925960919136,5.15735489889694,5.172410750640114,5.185391086538898,5.195290859118763,5.204486128261543,5.2142698384612185,5.235633606450412,5.245052627505869,5.251089332805948,5.255081624645097,5.259909925222627,5.267807440637168,5.278527625479489,5.28920284900869,5.29748423092094,5.304633009206329,5.31244081798055,5.322354571126534,5.334467018848208,5.347134909121324,5.371317635342511,5.385516971300502,5.402471059145768,5.420980674435726,5.438539664178984,5.4547531467527195,5.470130178264166,5.486809078390962,5.505728309501368,5.524815624841586,5.540177584826576,5.55028008548127,5.556894984756005,5.563408857523592,5.571922046757245,5.587527902808866,5.589674885899452,5.591107371633082,5.5942972514251075,5.599830922490365,5.605653410033883,5.609812505886806,5.612529016039917,5.616283613348055,5.622540884197603,5.631062651768053,5.640593801479328,5.648666170721296,5.654715089215278,5.669926228059682,5.680131737647691,5.688588420307166,5.694558295148477,5.69969369466547,5.706365808069069,5.715058348480274,5.724570373722995,5.733527774015894,5.740835733739987,5.746937138509046,5.753457275553905,5.761844747977792,5.77246983482172,5.783522668416927,5.800578051166553,5.807359118378948,5.815062693665282,5.824264980966863,5.834623096293387,5.844447601457579,5.851924987055913,5.858251471721899,5.86498853387204,5.874842123909171,5.888082130300045,5.904205532994923,5.921202998918145,5.938313569186296,5.9754343011820135,5.996192809020564,6.016246995002151,6.033713654108756,6.047973167134477,6.060949916466476,6.074436344239273,6.088014041560769,6.100139934314957,6.110970948351798,6.119335241033865,6.128372327026178,6.138755023746861,6.149980424929581,6.171104623250479,6.1807111410748155,6.1916746816353365,6.204891326957435,6.2191753263445335,6.233708807546937,6.250046908832419,6.269910962430392,0.0094894515184815,0.03098226022735534,0.04742198141772409,0.05857077540806409,0.06655759233419407,0.07530515543317391,0.08737192320840512,0.11826333289085898,0.13277717048781051,0.1466941407864311,0.16266800782454388,0.18300386979462602,0.2066629834445431,0.23002016230234112,0.2501701016171523,0.26760779205144153,0.2858926214736828,0.3081451885754051,0.33317901260532407,0.35630447729497255,0.3748813108935518,0.40519758601489286,0.4220188062064513,0.43950934925151197,0.455922901254538,0.47049597978021157,0.48393153628994623,0.49654048767860137,0.5097249051570523,0.5235100973876263,0.5376512080084769,0.5520009212289505,0.5665576489270043,0.5818497136541291,0.5964560631725017,0.6099393827323022,0.6352080055460303,0.649195602381037,0.6635351229878255,0.6764648974209095,0.6886224636008536,0.6966782200071768,0.7040341062307702,0.7107121466116465,0.718348460317178,0.7273279883593626,0.7335519671454809,0.7392203792171691,0.7437580373275238,0.7553300904742681,0.7620320435014151,0.7677077984590651,0.7739532235039713,0.7778503678560202,0.7820858157695271,0.7888223801871382,0.7951010171930022,0.8014360158978309,0.8057189697900599,0.8105712790285833,0.8181084431820514,0.8256889455221238,0.8326882649012903,0.8387828327429697,0.8534369418503636,0.8616648165879065,0.8697987347753381,0.875912164885021,0.8815295748466776,0.8864636366584085,0.8928015959273795,0.9007082885082781,0.910154923628589,0.9198606294182909,0.9281881001414198,0.9361937464758956,0.9453576618939793,0.9569193736602468,0.970371806794824,1.001470596893492,1.018734460704361,1.0363937845520144,1.0547819514808496,1.0739118443394156,1.0924581867869765,1.1096063067526625,1.1252821729088516,1.1408875281848867,1.1571553719009544,1.1742600560819538,1.1909512579601522,1.206324726745229,1.2216154056904924,1.2543169150760929,1.2677080071079396,1.2787005072336386,1.2909969173303488,1.3063604245892528,1.3224338008893963,1.3383706963948865,1.3531217590537683,1.367705739371446,1.3818954546332178,1.395239206079086,1.4096439651332606,1.4259719976681513,1.4440116839989003,1.4621558058233857,1.4925230957630686,1.5066266765278111,1.5219994862869322,1.5392636301936193,1.5579822897595126,1.5771813493305584,1.5965241541197337,1.6165983007579878,1.637027079205953,1.657155548118243,1.6752391104012547,1.6911129801787947,1.7071242527938906,1.7236105326235551,1.754310869700141,1.7683196592686128,1.7821375754057498,1.7948314020152676,1.8051441913537678,1.8132078744479758,1.82066354175642,1.8277881677500791,1.8344921756299823,1.839334036757098,1.8421006292030868,1.8452933694464473,1.8521538947111331,1.8612687476413303,1.8801876006319427,1.886588749806555,1.8925150156231645,1.900093728560196,1.9102286336731187,1.9219540527713053,1.9344080207121679,1.9472880722248742,1.9589670846991443,1.9699567681866523,1.981405838735745,1.9937632731524348,2.006714542976458,2.0218677950348427,2.0387943614913016,2.0710125980317975,2.087043436010172,2.103740857734177,2.1199212628990676,2.1352796455159218,2.149875065828666,2.1618658395724517,2.1727041537803675,2.1832923893083813,2.1920968678994694,2.1998926251210795,2.2070923206382793,2.2144650529284826,2.222204241424135,2.2329793850817334,2.236958160524869,2.2407632834031332,2.244013461367793,2.2473044938237696,2.2507707354731106,2.254952584900055,2.258368898935724,2.259974438092061,2.262153748680643,2.2669366714664703,2.2746907213876293,2.2816331624294697,2.2879164186326477,2.2913516769764746,2.2962942000420035,2.3031036560689917,2.3106124741073804,2.317444824500687,2.3206458506323036,2.324303861245505,2.3282577401650912,2.332926453908658,2.3378420060019676,2.340133176484273,2.342385060994749,2.34426869809283,2.3466720881332828,2.348723441130796,2.3496879534586252,2.3511373084523917,2.3531865102524874,2.3554121463637947,2.3549771412071547,2.3544353628256287,2.353629923895284,2.354733096383762,2.3564551324527074,2.3568158914693442,2.35660243429415,2.355058654019843,2.3529184935138274,2.3519175797064733,2.3527314825388577,2.3537824976409203,2.354548197505312,2.3547091258635233,2.3552168391070936,2.3559594269237016,2.3577178496350584,2.3583320335608624,2.3578740784570664,2.356315401950556,2.3548460911684197,2.353544299154915,2.3538941211923103,2.3540299067817547,2.353576708415016,2.352695260354849,2.352098086391025,2.3514423980266295,2.3506157533064966,2.349403200551966,2.3481672308803407,2.3461200443708825,2.344498650563438,2.343416832355723,2.343919032836477,2.3438255120509144,2.3427240156420726,2.3421870967823617,2.346455033325869,2.350876449815237,2.3521102162396126,2.3522262580684217,2.350061514533421,2.3475632698916087,2.3464361169065797,2.345681147446513,2.3453909331338427,2.3453251733342024

Rotation beta :
0.044986829776794725,0.04828890670209373,0.04958232949594822,0.050432532216345874,0.05080787188327292,0.05043927791129717,0.05100221940730647,0.05183390567006215,0.05142865451112726,0.05155396995168948,0.05147898726106593,0.05080950290831986,0.05008530298468028,0.049784404114859834,0.048959161984475634,0.048587487922533326,0.049606483593837195,0.050918971905644726,0.05137681346615335,0.05145295731345107,0.051964139327571414,0.051767156960583476,0.052128623884864875,0.05222596265124046,0.052177349551633716,0.05299786608935982,0.053074243224631945,0.054062160956108746,0.05497738368196549,0.054501246210688345,0.056011039263467136,0.055740267574961755,0.05585503893923098,0.05625049305312213,0.056147744775882,0.056144199507386645,0.056717991459091954,0.056718240454399174,0.05727252835300956,0.05783147331032689,0.05852511738765363,0.0602192516309092,0.06030902576365227,0.060145322197023086,0.06052047508413218,0.0608859142669462,0.0623058501419942,0.06344062595412155,0.06461155978167679,0.06444681843378781,0.06460720366778974,0.06550893680319073,0.06586248115032607,0.06666756307782785,0.06668866762057568,0.06588101998200974,0.06557241885995688,0.06476290553305182,0.06419992355662822,0.06395590143143862,0.06485990773876543,0.06587508534080887,0.0664365821584961,0.0665637757406538,0.06673458630342899,0.06761276567241678,0.0691036102595152,0.07066290226894648,0.07150731365284463,0.07125771792686873,0.07071166846881252,0.07124336383943163,0.07325232250055652,0.0783922450662789,0.079654800893128,0.07998687519799254,0.07996387614873526,0.07996547958384811,0.08043228929080241,0.08152693601704439,0.08284687059366731,0.08358181903250463,0.08454056776443383,0.08555100561573277,0.08578624065971704,0.0850725119012575,0.08454293573105294,0.08370806442187251,0.07877899310165651,0.07669551849577252,0.07454763142956915,0.07372949216474599,0.0717584156553237,0.06700124784054907,0.06138891836578563,0.05795917873945238,0.05822779175268519,0.06029765252970757,0.06252485042465092,0.06227578196780697,0.0610003182487134,0.061657226147284375,0.06546055082630899,0.074416488869556,0.07642448761207618,0.07821872483644965,0.08011537119756977,0.0810840426008478,0.07952113837814585,0.07675413751040405,0.07556780417931273,0.07740732286667629,0.0809698587525888,0.08372075498854988,0.08479877740683604,0.0849175496934434,0.08533627413469545,0.0880455224764501,0.088631696608005,0.08830344236136198,0.08840069772542114,0.08775530453578784,0.08729795494866432,0.08807274717338137,0.09070228488516258,0.09347388341052634,0.0933215325584485,0.09109181791248377,0.08960467094370422,0.08880279201982355,0.08702217550960228,0.08190297579694658,0.08238241333408047,0.08452138012276188,0.08605957156097134,0.08595501182356259,0.08531854740507981,0.08522266902894539,0.08684708984337824,0.08934022042990729,0.09034737285072698,0.08890952065163801,0.08644083243357971,0.08564292127275243,0.08650932219338843,0.08852170565387368,0.09022223562628248,0.09152024600186184,0.09376226052719108,0.09653150151759365,0.09820173705613626,0.09840970867081084,0.09866643315160746,0.10003817144644676,0.10282161472633097,0.10571834959187124,0.1061880650717734,0.10313608755671459,0.09817756168646041,0.09339819985601584,0.0892210231725565,0.08963991491359291,0.0887486844569113,0.08674975876282076,0.08412320622630177,0.08095899181940297,0.07728787632652918,0.07234657270054698,0.06667141659382633,0.06322361763773476,0.06325943980611563,0.06599533541265065,0.07040726257514307,0.07446672727900842,0.07671955887962907,0.07722472111012325,0.07959866310536605,0.08366031735179445,0.08790980765366224,0.09104742020617758,0.09228622377664991,0.09399339025469104,0.09877698644632066,0.10522884240224362,0.11018229917559624,0.11289733571060682,0.11474107073639797,0.11826189144646711,0.12422975521383171,0.1326253912316989,0.13181589062625143,0.1307031477290089,0.13154527949151393,0.1339016688278847,0.13570372890157326,0.13519931018614062,0.13272102421799625,0.13108378023735986,0.13186636513098318,0.13411563283577585,0.1360277200500947,0.13560197697626683,0.13326936927945826,0.13233041538340867,0.13511169047416957,0.13762230648175025,0.1385765115533177,0.13877299018728592,0.13975288427962937,0.1418453931353085,0.14389059069694976,0.14527495505172514,0.1462491107388641,0.14717795312990575,0.14831434489796874,0.1496218253668344,0.15181537696956846,0.15387259346795834,0.15625033188853296,0.1586443448965024,0.16185457532039574,0.16403762784313206,0.16446443375958691,0.16265437378602488,0.16161086419840948,0.16367485172831356,0.1690485260696566,0.17519015689214643,0.1795601483459585,0.18260816401491223,0.1865379590781327,0.1938554651266234,0.21706438126346,0.2241095643600219,0.22575333251720317,0.2261657971233311,0.2291878716293602,0.23474766274575995,0.2403927391412841,0.2443536525366273,0.2469348776482693,0.2510448032784353,0.25269375919884746,0.25636677907963656,0.25913925954214384,0.26143420188309524,0.26251086344913643,0.2628629297744732,0.2656196569670521,0.2685254239382238,0.2704353714255903,0.27161409171434,0.27179777736530136,0.2723850340357979,0.2745695801200199,0.2775072314995549,0.28049872458803665,0.28163204249315377,0.28073566148802376,0.2807483874037674,0.2823264842966124,0.2857818829858591,0.28528867453323065,0.2840051351625524,0.2842664110497895,0.2866504542347461,0.2890681462343143,0.2908588095830714,0.2930462562611342,0.2962156099369106,0.3002692838179176,0.30511384658393,0.3092966071677821,0.3123510879432081,0.3144364183647804,0.31803514372119274,0.3200581140002635,0.32247388131433685,0.3257179223518346,0.32935511851448573,0.3326247077183858,0.33548551245012403,0.3384592848370776,0.34170890140078836,0.34469527582284065,0.34712448606450685,0.3495742404929,0.35233121363451086,0.3542015234782991,0.3553275307269313,0.3556063851078103,0.3552119334765262,0.3548625406448415,0.35406129916395,0.35333384716818383,0.3511889832662768,0.34874539328328025,0.3467758593258024,0.34531219747444486,0.3430884605747593,0.34132727081037284,0.3397513208625427,0.3376868665454152,0.33229646091488807,0.33021356471415914,0.32759527853889775,0.32627344739604036,0.3238883243191114,0.32035969990597285,0.31857742096984615,0.3164263491094029,0.3169626296194043,0.3133744319754252,0.3104564499774219,0.3075504948123358,0.30303363871736894,0.2971898518750574,0.2918697878842559,0.28464391767072345,0.28181054459885463,0.27886456124912046,0.2739169342920376,0.26910706086035374,0.26416160223492374,0.2602646842050123,0.2555751865791735,0.25333966386303897,0.2519751551795997,0.24923394587043637,0.2465996199944321,0.24457904001432215,0.24548579204350013,0.24732463706920182,0.25075080473359346,0.25321818887819136,0.2536288840044071,0.25207035678771866,0.24976472329187777,0.24644633692895673,0.2408822099273352,0.2331110085664775,0.22557083781383713,0.21859996272556112,0.21312459128513472,0.2084889120686767,0.20421783545093852,0.20156205584374262,0.20171977755943707,0.20174237666418332,0.19972194604894247,0.19753314503914915,0.19691717416588367,0.19633363624696684,0.1939285106826605,0.18896094686625348,0.18341172701389222,0.17964956462720832,0.17797969282430032,0.17585504015942355,0.17163932746670124,0.1645665502786865,0.15525759948189616,0.1346847483860653,0.12310606338338681,0.10962059201015215,0.09527061916077496,0.08261379738754365,0.07147303236245817,0.05968954864391014,0.04721900114808905,0.03449516229999986,0.02425816830089276,0.013839970305454275,0.0008934395902656232,-0.012003358278822589,-0.02224120473799422,-0.041352572427999675,-0.05338930489665073,-0.0628048096733349,-0.06713856856034925,-0.06841355130212512,-0.07106315181242577,-0.07530760323230955,-0.0832520178856927,-0.08748047072802702,-0.09085734965081992,-0.09585387338377475,-0.09996730340565183,-0.1026575529004207,-0.10361545422503936,-0.10588612412221303,-0.10903781428795971,-0.11541380084849345,-0.12247179620877244,-0.13003612254231942,-0.13615827431335303,-0.13999547284616423,-0.14292494581299497,-0.14851769413480126,-0.15578076405702712,-0.16217695965726225,-0.16656988957435856,-0.17009926676661108,-0.1709218515040159,-0.16895215696136465,-0.17531962259978748,-0.18247995696029512,-0.1908879221574783,-0.1984530923530006,-0.2046670842498731,-0.2082537635710638,-0.21353594655854582,-0.22088786468025084,-0.2279223837977073,-0.2375064959556821,-0.2484250842093248,-0.26063578633132267,-0.2721508578685144,-0.27966447716083986,-0.29033239640047126,-0.2938049265192954,-0.2947444352387126,-0.2929505428321231,-0.29134647194538776,-0.28963266254546394,-0.28816920745330415,-0.2876048361969345,-0.2876481619440916,-0.28592967321727425,-0.282502929226216,-0.2780779121446874,-0.27411470566616425,-0.27052933808619123,-0.26965256304383767,-0.27801297346210974,-0.2801257807873966,-0.28207961661841713,-0.2846581568545042,-0.287758122033164,-0.29141217953379345,-0.2940056887386349,-0.2971878077176618,-0.29997763795959553,-0.30198452721708013,-0.30483649958771847,-0.31124115888410653,-0.3152508496297037,-0.3187082858390737,-0.3259158255388131,-0.3308850158663571,-0.3345561914460743,-0.33773587026593604,-0.3412724055097404,-0.34443239255340774,-0.34776664932385953,-0.3508695735792097,-0.3523538707536671,-0.35188149214580544,-0.3528201138229025,-0.3538645942336809,-0.3545484508927973,-0.35461522503891124,-0.35767362844838535,-0.360334368622583,-0.36311109197286107,-0.36497322234097873,-0.36632565518024457,-0.367989193604866,-0.36882144815223994,-0.36746768050392153,-0.36762310775595386,-0.36851583416058936,-0.36786692864256026,-0.36615804511981265,-0.36433150635061035,-0.3635459161701296,-0.36663729320962507,-0.3715238479223479,-0.3727595940979701,-0.37375909108345284,-0.3743632119337864,-0.3745252974809325,-0.37492249035133307,-0.37536255581749883,-0.3757353011403915,-0.3762619789438656,-0.37467273130426515,-0.37412404528091425,-0.3746858299856477,-0.37495204194001597,-0.37704150556833466,-0.37836647118726585,-0.3784112229931915,-0.37700029780684585,-0.37537515467937105,-0.3766645468121587,-0.3759037689440033,-0.37717711047487723,-0.3801112962209656,-0.38307157997215907

Rotation gamma :
0.25552792921120415,0.25624777301008106,0.25618532538305294,0.25597559011678167,0.2557281642189712,0.2569329350940238,0.25599719583836344,0.2553061068690993,0.2567844448952559,0.2569406296454067,0.25782514846374194,0.2576268223552827,0.25730229201073407,0.25533751323067183,0.2551995363729514,0.25459382854379214,0.2528918417511685,0.25296208377895646,0.2526382627950057,0.2520460183950793,0.25212502479710946,0.2512338844717039,0.2514001203928394,0.25106054339238987,0.25038621014501006,0.24957244911952386,0.2491466653668616,0.24915822721641617,0.2497381371080243,0.2518525442215868,0.2509381739396717,0.25143371011360743,0.2511171020333533,0.2506177638898746,0.25051418716559687,0.2501364615079102,0.24946475321909597,0.24915476521826596,0.24889434127690585,0.24867447650246646,0.24837577591169616,0.24829849665439743,0.24774870043213923,0.24667398603173257,0.24582323534350015,0.24586051952833068,0.24672436820750368,0.2468856966382796,0.246466194828644,0.24615697408858314,0.2457271789763202,0.2448389417448517,0.24480858227129587,0.24426347551103247,0.24369385858737022,0.24467417104036826,0.24458184883180156,0.244033307193683,0.2436712389262724,0.24314812395474353,0.2433801816297797,0.2450551342750821,0.2456077908746653,0.2454858158034407,0.24486852017273306,0.24469318363683584,0.24537662756299627,0.2460659179226213,0.2463031478119718,0.24655673640574735,0.24759427634488596,0.24937573960832987,0.25206869986151054,0.2540398073449265,0.2528586338732031,0.25322855210035145,0.25569393925501926,0.25929302536564525,0.26176265574471697,0.26204899366669737,0.2616967968589176,0.26166479718493163,0.2614286566945674,0.2608433031114904,0.26059090733515194,0.2601202333177967,0.2602222512338937,0.25859456158700356,0.25997947753180356,0.25988545618566433,0.26040007081839417,0.25590058724349457,0.24906924938391378,0.2457692976675836,0.24659768097390697,0.24523812680054122,0.2408643119610141,0.23480916212712358,0.22787634574856547,0.22706524791175553,0.2310122445795895,0.23296350489551645,0.23219364284882044,0.229062860854175,0.2313194102950002,0.23408201748521587,0.23839148423708337,0.23945484386386337,0.24144549788208278,0.24402666647956367,0.24591411722127787,0.24514449498715318,0.24346706718326086,0.24218414289343815,0.24149391731196554,0.2426270844803465,0.24399949221570771,0.24148048571930503,0.23997772748287227,0.23918086463093546,0.24029046406632204,0.23893667800174268,0.23706920886528432,0.23422737165780355,0.22979312395412532,0.22660581905178584,0.22657308822943883,0.2267798411490533,0.22537951405308057,0.2231837523273419,0.2218994507495374,0.22199782474277852,0.21983723968551241,0.21636072819732335,0.2144711064137287,0.21492005522800361,0.21602116856017145,0.21666745869261483,0.2154167051873395,0.21328004521050273,0.21275200568046296,0.21405523109368532,0.2162355994582961,0.21869991991692414,0.21755203932775374,0.21604213239396228,0.2130893512210804,0.21094880982675504,0.2092486428899996,0.20809558295266656,0.20720132768864882,0.20632107481541145,0.20457459999927394,0.2018965781951265,0.20002628160755553,0.1995550800741301,0.1991504098083658,0.19895529161291875,0.19952903659511212,0.2001537571281574,0.20105027132302314,0.19891488555776593,0.19702141363381304,0.19616374743022977,0.19618830694776712,0.1969765733885892,0.1974823795791892,0.19949096459737078,0.20316939945378493,0.20523730186394878,0.20585274656052155,0.20502496077279428,0.20134395738114144,0.19592856455321922,0.1907533871862415,0.1898887398471989,0.188738532267695,0.18565940245840232,0.1812628694708265,0.17743124645757777,0.17732237613919583,0.17851789306246732,0.1759299751289621,0.17048338641332308,0.16587329359312353,0.16209395943194152,0.15933537163654396,0.15751894852272905,0.15404652434420169,0.14668183670588175,0.1469189971374891,0.1490812600879061,0.1513101794208591,0.15187980610406557,0.151497751192931,0.15119135751430365,0.1516280661323276,0.15302877104051332,0.15405576245020944,0.15402039073131413,0.15307284766652446,0.1533593647235603,0.15626449029057812,0.16511385433924328,0.16682656354201747,0.16509046904607733,0.16180281814817954,0.15999853698428806,0.1589654890337133,0.15713304508807344,0.15472127656095316,0.1520837985060083,0.1482760432234613,0.143150570912596,0.13863373403807674,0.13566002092672524,0.1327546983375993,0.13042420287554501,0.12581433927765634,0.12219219104005707,0.11896856159328466,0.11699511754811162,0.11720615811523495,0.11965967947246166,0.120367942029042,0.1143745889956442,0.1075844510249098,0.10192248125621466,0.10024769669442861,0.10123802599154026,0.10291770501935332,0.10271371850181989,0.09474957896003154,0.0882574802817703,0.08542558146534146,0.08497378645202293,0.08330642804314908,0.07955947312885549,0.073600532608346,0.06531139928217729,0.057588418391951016,0.04795645975798138,0.044775828285193824,0.04072423974019414,0.03645264886169138,0.031593145902291966,0.026934705334922614,0.02544187725927284,0.022350283951382978,0.016069892953401957,0.007532715656316521,0.001142855695113681,0.001139804677975575,0.003150743905391844,0.0015957376585866887,-0.004428541726340373,-0.011976023252746392,-0.015605747690429316,-0.014273269754437778,-0.013930233572489488,-0.017909188874724025,-0.028504621543939783,-0.02899771988974528,-0.02724868286212246,-0.027981821787357142,-0.03190084863211352,-0.03588156030407916,-0.03763945183360702,-0.039995552971742614,-0.044269188391971886,-0.049880039604701755,-0.05703006943718254,-0.0654046774535029,-0.07488301518858705,-0.08421686557862375,-0.10144570299290415,-0.10732737641251755,-0.1115183615434122,-0.11735461337089677,-0.12492929434723886,-0.13153887501735514,-0.13540363105839912,-0.13862013440853038,-0.1447271261064493,-0.1530409185110559,-0.16095782126025734,-0.16712553699037982,-0.17195243948941508,-0.17702346033256808,-0.18265806673312193,-0.19414186279671697,-0.19959116966686896,-0.20505623086734887,-0.21000642547590212,-0.21835359015947536,-0.22161957317759498,-0.22741689145157062,-0.23054367242692944,-0.2336216323836335,-0.2410974196613805,-0.24395709526640857,-0.24924805426526314,-0.2508403750241264,-0.2553727420865645,-0.2603764600708179,-0.2646657396357795,-0.272939746108138,-0.27430103771128317,-0.272209945765149,-0.2761824915401877,-0.2809086592011915,-0.28922877213606796,-0.2907174160554953,-0.28861389611242444,-0.29284383120743523,-0.30048575202558075,-0.3095976514727543,-0.31489333497205624,-0.3200510528893941,-0.32314046607196173,-0.32982139508004166,-0.33522190305596783,-0.3425163630147361,-0.34602806180176043,-0.3486210979692938,-0.3497975275885147,-0.3528888660252848,-0.35829162379614604,-0.362571274851513,-0.366501135800512,-0.3692693335374839,-0.3738991491157473,-0.3796304227880571,-0.39295128088274284,-0.40158201253621884,-0.40883564443523723,-0.4161025889108929,-0.42473455119952236,-0.4345148836364719,-0.44238394154032457,-0.4487955208491542,-0.4545096027230703,-0.45853391312703,-0.46205621656967244,-0.46471735412505777,-0.4656637765146364,-0.464803677259028,-0.4631755816735271,-0.4648937187625758,-0.46528676769665595,-0.46467549901208205,-0.46560251775021744,-0.4650024556382059,-0.46614290343874687,-0.4675813455101571,-0.46923259407678936,-0.46975915289298964,-0.467513130939915,-0.46280477627413336,-0.4615155395543708,-0.46354930082501516,-0.46526924990384344,-0.46219065625775807,-0.4623865422356565,-0.4635881210972915,-0.4638454230902836,-0.4635039618515663,-0.4652525546412808,-0.4685434996845735,-0.47039651620821016,-0.4670698019774777,-0.46224070215830937,-0.4592995651581339,-0.4573585590276524,-0.456859947234735,-0.4559304521646813,-0.4519176441483823,-0.45044554309647744,-0.44932514321577366,-0.4463910523194628,-0.4430196445061048,-0.4457198554055404,-0.4487055913508276,-0.45315871157188,-0.45433806610203953,-0.4560548866239789,-0.4610641234329219,-0.4615861857481464,-0.4519243409013446,-0.4514794835043479,-0.4523615484040993,-0.4535271010010069,-0.45217456680912044,-0.45101458442747716,-0.4502859347883944,-0.4511465949980115,-0.45471553083376437,-0.45896812313961244,-0.45829480304707604,-0.45611479487667556,-0.458782684879977,-0.46131920708196605,-0.4624196106809858,-0.4688205172119317,-0.47581633537597323,-0.48201415848564866,-0.48456650591681427,-0.4878885297418402,-0.48847925276895166,-0.4876316794517515,-0.48876105559032307,-0.48860224356866144,-0.488112403011447,-0.48627933266017503,-0.48315289379887494,-0.4811301248766453,-0.480253522751684,-0.4791807484282385,-0.4779336243325368,-0.47719119244679253,-0.47675438692032857,-0.4771251140285432,-0.47943571041743555,-0.4803136317831011,-0.4815625175116511,-0.4854143450552124,-0.49179615999054094,-0.5027882139630283,-0.511330315495564,-0.5177079679666956,-0.5158339562811716,-0.5177336918678213,-0.5218728599026432,-0.5270804554051975,-0.5341440971327733,-0.531372412901773,-0.531391447156065,-0.5324742818414003,-0.5385760770203128,-0.5353103934243681,-0.5302877699214122,-0.5267702622276581,-0.5242348435502954,-0.5273153527133309,-0.5252125784180566,-0.5216336619836629,-0.5198884103021308,-0.5185788388330025,-0.5198359260882739,-0.5173366101496613,-0.5166421412519762,-0.5162782743370185,-0.5213984197657722,-0.5234348979289605,-0.5251382725356908,-0.5236259954624018,-0.5238062429131487,-0.5269773002293632,-0.527318891747773,-0.5284963358225674,-0.5310531815741072,-0.5320850957618709,-0.5305350624846187,-0.5306850822928206,-0.5313543857840791,-0.531118966584197,-0.529580034208261,-0.528004371968955,-0.5265630442220008,-0.5276610634748853,-0.5275473261459739,-0.5296283954824355,-0.5305091450681785,-0.5296571970049482,-0.5268837730056061,-0.5267001198806315,-0.5286648321800893,-0.5289215673696497,-0.5287764052238004,-0.5287959159298301,-0.5291230296428511,-0.5311222416784013,-0.531992762806264,-0.5337899996219253,-0.5345900264867998,-0.5348966950041596,-0.5334034983726197,-0.533456602461155,-0.5352693790408606,-0.5364571650257562,-0.5318834454139726,-0.5313428631931099,-0.5359229014685659,-0.5357196300371236,-0.536483963735254,-0.5370497983396438,-0.5375464727234666,-0.5382234580190208,-0.5390077080185198,-0.5390241100163358