Acceleration x :
-1.6947294492095708,-2.340681666892767,-1.2499154515512287,0.14638046512734143,0.3259618466541171,-0.39471751257013526,-0.9769673291388898,-1.7247179063685238,-0.320499160801433,0.4441793530166149,0.5144556160960346,0.2633791885509156,0.09817615959444083,-0.3293529503971338,-0.3330268166042864,0.04556908905794844,0.3756389007538557,0.37605807601399716,0.26785109153427183,-0.043871062101563434,-0.2500929694657214,-0.3945637102479115,0.07927252988573164,0.4153322844451293,-0.1757733127470128,-0.470700426325947,-0.3621825857987627,0.0031171188112028175,0.6089113943273201,0.7215734950523823,0.4759646304644644,-0.03360194408153184,-0.133859558725683,0.051903826771117746,0.2906525049996562,0.20699558601723983,0.01928643674752675,-0.21188525775494052,-0.17777840549172833,-0.1584090123016387,0.2736825924330391,0.393083335497044,0.11216818886143155,-0.0659719945808174,-0.30174103137748315,-0.21350052919816226,0.07877870935364625,0.10536164151858537,0.24414710320597513,0.11557315673301927,-0.09249254273376427,-0.4980772031491622,0.13162672163969835,0.31910514915976673,0.3527772267349064,0.33654147366173565,0.23247577197151256,-0.3456005035059526,-0.6607718203481286,-0.458224537242949,0.1583764252062887,0.3072776409829035,0.23090718921422956,0.019341057578171603,-0.23407478639967738,-0.29246211170488967,0.33858649655804035,0.510186998866126,0.23023920855848118,0.10747848754208535,0.031196990415209437,0.001612919370520103,0.23381266486477106,0.4304988008515909,0.20956764672864228,-0.11756817560829222,-0.38379794955104585,-0.718595648285374,-0.606037555924058,-0.09799990797839127,0.07647401717442553,-0.3002485095310956,-0.38475912273339924,-0.12217585206683725,0.08840556568107567,0.4262868091797456,0.28604576012287286,-0.03706470883825095,-0.5145003685532138,-0.5730679640624672,-0.08239085370250977,0.2733795726321637,0.25953997571421783,-0.01236293936097063,-0.21330739951254798,0.032501202598284,0.43607853721268475,0.4904451373681426,0.14113411630592307,-0.06520994700002483,-0.020121773326816035,-0.11049252900048158,-0.06281751260526944,0.024007453370455185,0.10246274173930286,0.01936675599172013,-0.29904550868319346,-0.3387628029730171,-0.11011691888743079,0.27839743732679634,0.13848376619392075,-0.38325759559664874,-0.3804065535470843,-0.13931489238897338,0.3186317594943568,0.2200380960070528,0.039160176430293354,-0.13771060813064687,-0.412059838645719,0.037017972203250975,0.09366219843449071,0.22227051296792924,0.0935567013665568,-0.04351417495529167,-0.20766552116805687,0.18078173375986514,0.2018082282409072,0.16497238940522074,-0.003601936907035997,-0.3181936238054186,-0.21781378928739575,0.02692177219786681,0.18542015241654589,0.1364639690704178,-0.3180295192848891,-0.14769959403504618,-0.18830814720932393,0.03973824117972981,0.10922331278226338,0.0014721359319570181,-0.17112753276778384,-0.2935258136799559,0.08650879214904271,0.2787194175564684,0.12850036064693704,-0.35648316858075557,-0.35590310367047784,-0.006204973282836726,0.1347059555551037,0.2974121535940096,0.13273338597365655,0.07562661569800692,-0.3243355971591547,0.23617312865210696,0.3566731016622856,0.3460687786048278,-0.34809853086676446,-0.7619296900339424,-0.4094343124477193,0.12125331212813034,0.4189814911350608,0.25069709110502153,-0.18162594776535407,-0.0794583530477248,-0.15077617020248435,-0.12519670685851014,-0.025175220791483297,-0.3044087892820127,-0.23185806019827723,0.2625716167613864,0.48550369891058653,-0.16340831842627376,-0.7275855218835174,-0.19724157791249453,0.007452920096629532,0.5249136625505983,0.17988774406220762,-0.26496068558869884,-0.6432116868034005,-0.20032756122909484,0.24601560049159452,0.2736828116287477,-0.1985886268735863,-0.12720893259691074,-0.08117871970008127,-0.18070159946205094,0.0764942334119696,0.12691328325173817,-0.1400339639111422,-0.22049758501127362,-0.13655775743424892,0.331346498834528,0.08967317446409724,-0.25304800161272284,0.0055855296351743165,0.4359265615213662,-0.17275982841104268,-0.28158611383289095,-0.3580245528038591,-0.33936003821380434,0.15725876455428078,0.09409787730486131,-0.45910278138220306,-0.40942700592409814,-0.08255710451435297,-0.09421769515909253,0.5672529211081564,0.35648243792839346,-0.6787716604843735,-0.0902539791598916,0.40447373089827593,0.3604488938739523,-0.18282392537826672,-0.42832894599922,-0.263543621865008,-0.22508610011162236,-0.06692309389372822,-0.013143739591294433,0.0015304653941617288,0.0013790064396016532,-0.03967874324456788,-0.2971418304863386,-0.16898856624402106,0.12026420975923538,0.6000638883419335,0.050707255664002145,-0.7083269138578325,-0.4041392017142847,0.6544158754501491,0.7291039636224508,0.08260580249428749,-0.4326700439434498,-0.3908691300462931,0.07910067131700925,0.6954507734108716,-0.21064146823892368,-0.4531356896713376,-0.23998877795012666,0.0036026261747916575,0.16276775550041347,-0.27505908668432383,0.2463263652075082,0.48553179249390954,0.011785374651744495,-0.5717122020719573,-0.5776071418620645,-0.16270997916487975,0.2664820864696987,-0.2860577610879205,-0.5224129683086648,-0.3459386128865182,-0.07888485487555154,0.5877683607945219,0.6709906512193381,-0.6939433645226061,-0.19694970056014136,0.28492163319746033,-0.17649797375975176,-0.4650241707878187,-0.08337011053082533,0.35634660965427756,1.0741221006631851,0.6615737113155424,-0.5091245572663843,-0.7864148736014962,-0.4159689749134704,0.8716321737684309,-0.14517750994521192,-0.9884617329038679,-0.717335492156446,0.08075344349271617,0.865585221754387,0.05833370455498807,-0.42721473767962304,-0.5671572421813383,-0.3223877875596285,0.513526920411177,0.4237126843754202,-0.11755606504539028,-0.4436537582399323,0.4684015017338097,0.4684015017338097,-0.9467392180051654,-1.1902226148717105,-1.131914583614096,0.6089149014586582,0.9777517575148492,0.14273432717733084,-0.5166674103939906,-0.3979610976012423,0.043327095984551124,0.36095735485274344,-0.3791726278379559,-0.544783497809805,0.1163424149393104,0.21193306068573145,0.7184918225847184,-0.23916251972643657,-0.10100825948151759,-0.1213705087670125,0.2850385193090886,0.27313303225887936,-0.0925216318309307,-0.2988361585151404,-0.506705367295444,-0.1959582418373786,0.07961068493206985,0.48310931458733974,0.07221415407313034,-0.07605350847372319,0.1462016836274881,0.36831253992114216,0.1976086576592177,-0.21435946584874763,-0.43700500440783796,-0.4668413032123819,-0.18018331120898945,0.6719406454205512,0.2982387040786445,0.48249848921261723,-0.03989318514626938,-0.3199995772488415,-0.46757232090067113,-0.3662358797775581,0.17245257082646712,0.38829997367803004,-0.4267810955027118,-0.259524431085214,0.6127424969227985,0.6907241102151572,-0.7534959890138357,-1.0942248313628136,-0.25679959096489474,1.326585141994804,1.585346406687796,-0.2267577961835079,-0.5014074070177972,-0.27648572195395826,0.28398212385764343,0.5141841056782752,0.11030903479289263,-0.4876475425388664,-0.5296597245665267,0.07349260847715194,-0.03598363331998698,-0.20469010382015257,-0.9826706553470342,-0.47773394169192757,1.4436594696715472,1.6280872317835688,-0.4412388791179284,-1.1617319950550793,0.02764504953769501,2.273390045647323,-0.8498905167553573,-1.368681385576725,-0.18061662459233774,1.4254654952026902,0.7981574069086462,-0.7296053372733294,-0.9822236422318965,0.025797031067812348,-0.7005976347800343,0.20108769541401414,0.8638678233772515,0.8757538568083196,-0.5603200531050563,-0.9942674235079437,-0.2912204045481048,1.6736029284201561,0.624608620076999,0.060232236219267356,-0.0622724824757548,0.09158058812115341,0.12590656302776188,-0.20439051808537914,-1.1649825212836264,-1.0795114655513316,-0.5152384370367974,0.4567220602581277,0.19574806968541814,-1.0367154762022197,-0.4414445577578619,1.4511870886974036,1.4524946641646326,-0.03731458509622607,-0.8440697016473859,-0.54914647879228,-0.15737031690366565,-0.02722739951435942,-0.032229500384279526,-0.7205847032107412,-1.96954855312556,-1.4034642374053596,1.0608675553578883,1.5321113678455351,0.8480908469222486,-0.341063663793914,0.6808958130314946,1.5742181328214704,1.91932409427613,-0.22684092615600673,-0.45891237337663765,-0.16206941623901946,0.31129874972514804,1.1107864553894846,0.19839520492702722,-1.0312838796075432,-1.00512418695651,-0.2549845226332545,0.7239248074188828,-0.5666634307824074,-0.5482605628032237,0.4176712853193283,1.1946668078642337,0.9666794516194611,-0.04203622049037367,-0.18821632247371597,0.20929301277203485,0.6160311997372657,0.5554800291953608,-0.4194178732583299,-0.8097188845604658,-0.6976471874766051,-0.13671715838019735,0.6529030597344041,-0.30024787021027877,-0.08502795160729437,0.5922471867090091,1.0670284160751848,0.7111321074716747,-0.5696329115798696,-0.8924301932558417,-0.18526245937049388,0.8155570891946554,0.6512989855386316,-0.40962694894298907,-0.7879862876366823,-0.16592430156888438,0.5741795785661786,0.580356294439733,-0.36661622086465356,0.0931396358651109,0.3942090515913442,0.6079384941745549,0.7433056535847484,0.2531571793419309,-0.2737958252828568,-0.16174990196106953,0.6203934135347604,1.0653387824878096,1.021702469857037,0.3879275967016816,-0.5162895535249262,-0.1776716206490062,0.6544825109455734,0.9516570929240434,-0.9525334373671561,-1.1893769578278064,0.011995442914072191,1.2545292289569974,0.9449502887617796,-0.5877593007052317,-0.8443458151750266,0.49223961956948037,0.6348518547371029,0.5920549520725384,0.029332619032147338,-0.30648875562753525,-0.16499416284561155,0.8648080268368125,0.9942425082623958,-0.060282057577208614,-0.5952981352448463,-0.17037028465969487,0.5459859689347446,0.7408478121038525,0.07110380907789804,-0.49354215353541075,-0.23364291605474427,0.9617072161648422,1.0971193837605415,0.4207186901912093,0.26613550152173265,-0.12102177752773277,0.3089368063667789,0.6012723142836243,0.27890566084356977,-0.4778559971690178,-0.03892011146356817,0.7754328763380646,0.7883373660966754,0.4665797296667471,0.06937255570534616,-0.35214097465798255,-0.0746467241154518,0.030808854180725754,0.19993004981148987,0.1751181185076013,-0.0018129905389854682

Acceleration y :
1.0671925205957145,0.833039042936638,-0.02971658369830111,-0.5487867055691779,-0.739632518029958,-0.7846241177272051,-0.6073530955020338,-0.271464861584641,-0.31824582891669123,-0.3395365638244897,-0.3055128598000854,-0.24366669927788898,-0.13695858418694695,0.10762808861322701,0.1629609399849549,0.16747085515744983,0.03378523279314395,0.0018720372392315766,0.05101544026376213,0.13389813717040233,0.05303697725320235,-0.0012391580077332036,-0.05780018220017664,-0.03523748427793616,-0.005947264774033101,-0.028816132293816188,0.06682193507419433,0.02658080413993448,-0.11314478794177993,-0.060058377489703704,-0.11239284619647077,-0.032157875903195236,-0.00793068682634621,0.06894901479734107,-0.0390525285044685,-0.05044612050978466,-0.11816781286871991,0.002100427323066833,0.013835251819679978,-0.003945143158649443,0.06407010648224969,0.2473383917942643,0.24661753017380833,0.18611677464488893,0.03433396870010765,-0.033707532481011,0.005322678018728038,-0.22931617542942984,-0.35566951411031184,-0.4298955742614344,-0.3628623482238501,-0.2765974569664337,-0.39570718119461085,-0.44594837198313325,-0.511205272530578,-0.26769374554809183,-0.21703639344042167,-0.008399282156451955,0.03556106737622758,0.03358794980550883,-0.03689332747685257,-0.05862146285464987,-0.043589107921603136,-0.028634606281027663,0.13579582401788792,0.16018648856924847,0.1294486012824811,0.12171704804920591,0.11048541427310556,0.11831743220617062,0.036130211316980416,0.04569471559845842,0.04832136517446488,-0.12003492191485128,-0.22510294164856895,-0.08672666355026885,-0.11148982380898668,-0.155563760672044,-0.1364974512149114,-0.15758359432816504,-0.19967074128817766,-0.0677696916525485,-0.09942960285479202,-0.052179392309486865,-0.03250844290653476,-0.012789437127753626,0.02199126840956742,0.035409635107603386,0.038707226764713415,0.04190185352098196,0.010701245234935777,-0.009817579426825977,-0.07935293817818165,-0.05519508230227511,-0.09341445248480885,-0.002517879984641331,0.04420889748749323,0.049751598906982684,-0.008588162641922826,0.048759208602458234,-0.06417467653499916,-0.1134734262411017,-0.07939709698031656,-0.12090536634013987,-0.12776048379875718,-0.04813666539047844,-0.005622340814492781,-0.011889902463654288,-0.16665190345738082,-0.07452680579652078,-0.059411814081319604,-0.030219729181157888,-0.022674460334179455,0.012074966432177462,-0.0362118388855597,0.07079693965238984,-0.11756763675217516,-0.11697822862481698,-0.10303417581855319,-0.20857578614708036,0.07030481788704637,0.03541968157758238,0.02933108237889828,0.1603782665479928,0.012084937553631606,0.02288742266484769,0.012676628969621379,0.01306526752760401,0.08615487327799201,0.25236743547003715,0.12482135247378609,-0.05828622128460556,-0.022731213756406212,0.002350273184762045,0.028873659750889055,-0.047354072778578844,-0.15983990362128242,-0.09378358719130046,-0.271806240634527,-0.031990682093147184,-0.02691577399863163,-0.020269529500743372,-0.11851020569875835,-0.22365246884562073,-0.1305255097989924,0.023285023130709303,0.0051084244883386415,-0.04290189284242224,-0.0001992272257431068,-0.06115351121607236,0.18012562620500103,0.1105891943079885,-0.030499491404031867,-0.03394874822520651,-0.008546603363894973,0.0019105493258750356,0.06120367506730835,0.006396702170875505,-0.06002792298593558,-0.13271071748412214,0.013842500119440956,0.04761909409004729,0.054608130993484515,-0.032249374128528865,-0.0000016121114509125787,0.05622380429550539,0.13241306797810828,0.03597320097422926,-0.02313350409711711,0.031219247912790158,-0.10178239479232579,0.25541193599877876,0.24202751723611726,-0.1796229191135615,0.059489372829557394,-0.2183323150024749,-0.027023848899430592,0.12682620775648393,-0.01925258242698619,-0.17034604526758193,-0.09957174213868565,0.024274970316397956,-0.08228294548178092,-0.14674744440936482,-0.13467507635965012,0.10245482329432852,0.1703842949187383,0.14864133186456746,0.02412741735515883,-0.23567812994308768,0.19362844718294217,0.20272413750942794,0.24642518593948334,0.22551789739131925,0.07050339093275833,0.30337279729777944,0.24458038005670532,-0.0029145300316100473,0.01647400396707817,-0.02491914312158478,-0.14076944771199487,-0.12543768514068795,-0.03590343509009108,-0.15134256278043612,-0.21652062593800947,0.30374258045824243,0.06649388129676226,0.1561554977538064,-0.12289058534060604,-0.016460945839394114,0.33089188693482424,0.2145122635239735,0.14103287528799846,0.30770025030914694,-0.09864475435372441,-0.0030417879818473007,-0.014389995059033388,0.3190590449957177,0.34910361625608055,0.23798087219381703,0.3587759556930512,0.17728236560309305,0.10285522992191835,0.266658940873947,0.367507762876898,0.1534189306630753,0.0837456475786399,-0.010430580775614361,0.09965952088683842,0.10306473535359836,0.17544751485874877,0.1874961915056221,0.08500381267988122,0.017264491049421484,0.09368357001608237,0.2475365629811771,0.28493575305435803,0.2752524720982648,0.13765632979329676,0.22447107348581774,0.41014720995742826,0.2987411006428301,0.21252435937607658,0.16209685223521664,0.2560083492556587,0.26844980634609233,0.2371123822635971,0.16444695902531967,0.09031307980283163,0.1535513248710893,0.24292444780953226,0.3440617861639708,0.28896327327108007,0.1569296604640782,0.2053398729657754,0.2719415757182985,0.4323052292190492,0.4003595735777169,0.2693871237288229,0.30960940839871764,0.43398174759652464,0.3102681645683944,0.2601542534213513,0.2615305650095455,0.25963128899317234,0.3333282472362742,0.12284586941604501,0.256029958299268,0.4172683670742437,0.18401357355425133,0.06227206235064659,0.16291554820695892,0.38559159150216726,0.4027854490177706,0.15940885526025667,0.19953118668701497,0.13041958347279578,0.20000401009684426,0.43675428104978054,0.5163666738817468,0.037324384971032847,0.037324384971032847,0.4564326853901148,-0.09822482104175724,0.012383508366608294,0.08972412833319976,0.2940222554273903,0.7850698887333274,0.7087719542115927,0.44854569499995556,0.11724380249213427,0.40161742815170437,0.5516590826677158,0.45171709157768636,0.14827425211784429,0.4058997451134026,0.3600837868886068,0.32878771772980686,0.33367461298853157,0.38116752798222003,0.35862642768714575,0.29790459501976146,0.3130618504075333,0.3918059359723702,0.3683670465873554,0.42619514884091914,0.49003812746983016,0.48935083932541307,0.4001527258940041,0.06975354524641297,0.06447274159954394,0.48030653212629254,0.46748245066013183,0.22137964680911973,0.16899472199017182,0.23876520923823116,0.5862478366963565,0.8269109154451638,0.5996771175140515,0.4838807373512536,0.8161642613075674,0.6106868430346251,0.3056040086822584,0.2423165085116401,0.39597712070979174,0.5786515363484621,0.4378849290475249,0.2056865127126686,0.33811657749135043,0.3895519099678844,0.33930735817849633,0.1703968438730575,0.14978753362447023,0.020201286570122465,0.18312278046067804,0.6551878827359527,0.621306144465506,0.6507225738901644,0.3941324426911771,0.273791039509885,1.048141344775632,1.0508356984261422,0.7442248142562806,0.3673025591609999,0.6478203496426344,0.7929897950123995,0.9135474347602576,0.6269094443652778,0.39242300842478867,0.37859541247189044,0.7808223873566835,0.7038993797391653,0.5907100037369877,0.49351990517098454,0.6519002393674105,0.6659721654701978,0.7578968543212861,0.5382296557195484,0.32678580332286655,0.2999591529293917,0.40377752879504114,0.9288045520596205,1.0122531620536,0.5286508032523095,0.7333497114334255,1.1598509305488318,1.2328193553216755,0.70655990418531,0.34278898974917826,0.931047362550348,1.7819599888950586,1.6769338264085352,0.9017012949481606,0.5053836171723902,0.41239075110051776,0.5517009490480647,0.4572883158387616,0.4714328322537243,0.2479831194385886,0.16597283515203742,0.35564068987462666,0.7931727503638714,0.708474724830687,0.6889646993272006,0.43637847000733015,0.8868089923731982,1.0363467159550637,0.33722631412073967,-0.09944998805569484,-0.1624769558602944,0.29500357634862884,0.4973258367925882,0.5558958069220185,0.32460710757691413,0.2928801544538699,0.9520692539215088,1.4748317297875881,1.392480486576259,1.0917009389083832,0.9764626675523816,1.144982739501819,1.4768364937387406,0.9108400754977017,0.6983359003931283,0.6545462238315493,0.7576604152169079,0.784831330737099,0.5323955427385866,0.4128505506319925,0.36188371245004236,0.5344065903000533,0.6485379233274609,0.6982243297774344,0.5790391474265605,0.6290877382524311,0.7477079071316868,0.8594134012516588,0.7782931611400097,0.8246619674745946,0.8676725494224578,0.7312954823173582,0.8342266452860087,0.8664522138472646,1.162279765130952,1.1290573675520716,0.7570753088053316,0.9072023035172373,0.8865244032781571,0.7366358934972435,0.6142326258827,0.5188389457467943,0.4779283682854846,0.46511619645282626,0.3836982885688543,0.348639725071378,0.391333824948594,0.4371955950764939,0.5022818882973864,0.5004601892955601,0.3892530000865459,0.5086696165731176,0.8724643868088722,0.8968370499126612,0.8241618359327316,0.7949665019128471,0.783772907725349,0.8391131752185523,0.7478207929216325,0.6240986247282475,0.5962657381679862,0.545760160822235,0.6684205084703863,0.8031111568585038,0.8797469450324773,0.831022004025802,0.7644081359114497,0.6977758553575724,0.7179331657886505,0.6634275224886834,0.6995112277828156,0.6110599871959537,0.5994747633423656,0.762209237627685,0.9435120726522058,0.4461810847604647,0.5406010610260069,0.47617611779067665,0.5247942008893937,0.5630407467732206,0.40383430048357694,0.5345281343204901,0.5614613320946693,0.7713765136193483,0.683516736119613,0.527263952003792,0.5511459820464253,0.6671245503757148,0.7581451299939305,0.8074401990387589,0.6221818313214927,0.6085349256977438,0.6819277133625,0.8156409680858254,0.7397358322739601,0.4317508467392996,0.6081920305442065,0.6874013955332339,0.6983470063090323,0.8746814052712172,0.855314587630704,0.8004205295350402,0.82182886294052,0.6518981204755604,0.34498540381491183,0.5654718829102814,0.3620952728414908,0.2780842614580877,0.23954342706911264,0.3122766913792118,0.23963170814076437

Acceleration z :
-3.9780177885368464,-3.417621455325186,-1.6925778241336344,-0.3501254335844889,0.21124816542780026,0.6190857650022953,0.3308895488472655,-0.46771947428639976,-0.9562330956026911,-0.24070638816757126,0.35227658373638987,0.6895186799481511,0.5779859485791996,-0.06171268860194832,-0.33669165925476696,-0.6718137311052531,-0.4470519858434796,-0.015113691382325486,0.34472288042120636,0.2771939798211679,-0.2756996861428022,-0.3064087126612663,-0.12482636657562106,0.48788361631706356,0.753932772995904,0.3899828121984377,-0.14318396150781773,-0.24632148810299112,-0.06627578613325022,0.529834825405106,0.5136232569251209,0.13412895938474684,-0.08441611245241946,-0.42527909344192594,-0.3720637091482058,-0.29296217018151655,-0.17128244933485984,0.011098932465765392,-0.3623208252256736,-0.8745324983198195,-1.9041246254481374,-1.9354161280296742,-0.29427509767729787,0.6248237241324037,1.418527366502583,0.44684086384344845,-0.8582139623340219,0.610072035604529,1.5480672079987823,1.9339000243782996,1.282299571675062,0.39581842301674186,0.3118442913113162,0.5775562519250437,0.38869353957287966,0.009867061716405442,-0.09852529269251972,-0.27999007681310173,-0.3825864183368161,-0.77337126763314,-0.4770529371578246,-0.2587960437454283,0.041659710761602034,0.06544393385241273,-0.059485340541834006,-0.2618924205918796,-0.8212778779942542,-1.0886997112657875,-0.7117885986190289,-0.33893227778840807,-0.283876270596683,-0.7224805268947034,-1.2033856094360351,-0.40793859399724747,-0.018545862354669953,0.6484254759289324,0.6406910092193633,0.3034982503083534,-0.0396534672394162,-0.10749162101829424,-0.08042558151152916,0.2844485357929952,0.3191395263534039,0.2783491777382791,0.033211942400236144,-0.49433403456546365,-0.3016651165970601,-0.06510510295263956,0.24318987554637714,0.15334822178073226,-0.22556842200215904,-0.14013636483969166,0.05215845911931246,0.338532647478953,0.1449080453540664,0.06286123301598709,-0.3686702673176303,-0.39437640751488506,0.5363558612043038,0.5249268508257344,0.4820040932917967,0.007924463723180815,-0.09827779333801008,-0.24097848310722036,-0.22691983661111442,-0.38857389524858443,-0.3744257255718112,-0.33087142866868524,-0.290369632937666,-0.15648423651782795,-0.24632022772766649,-0.5276053858526051,-0.6767751529049127,-0.8150839187249541,0.1470664563638158,0.15309518773457967,0.4062516272909939,0.31811361737176774,-0.044295808585966004,0.32931316637601704,0.15765035768775268,-0.014960785250889602,-0.5468812007414177,-0.3821941310836002,0.2754380212656222,0.39429150571040805,0.1209533793334849,-0.35622038945872336,-0.5452098699957132,-0.7906972270958125,-0.5770161536989733,-0.16496214200584217,-0.09785849934685975,-0.15643752956558019,-0.20465841177394611,0.3001495974675752,0.3480240408584475,0.5865542357644066,0.16328313941033556,0.19059152717245742,-0.09406930879750289,-0.002097735753886809,0.8441592065617441,0.5921318897662684,0.2271752178779803,-0.148541533885058,-0.2018394270967692,0.22175257177473975,0.5395660919550807,0.27226178411599244,-0.4337971117446199,-0.7394548964407295,0.36899120636768634,0.31657186782248314,-0.26336784517299383,0.2506265831520781,0.05087536963936873,-0.12011066316533833,-0.27893090488268063,0.035833863285486586,-0.029519590688322203,-0.39169940685797483,-0.28205848058499394,0.34275906953494995,0.3627014585737139,-0.22675348533457143,-0.7685810376819223,-0.5533742890877649,0.7406481978785247,0.7587878118116408,0.41414895641207694,-0.6136599405612796,-0.943364846201241,0.08180930008804425,0.6372201182384044,0.6442891798418015,-0.074360354055278,-0.1794935753791593,0.4063078509902581,0.5014470814410596,0.5592092788515612,-0.14701084458590485,0.005902566544958972,0.17031112008467317,0.8576727681294083,0.4543564271053299,-0.10522511912472546,-0.2600953993735835,0.6678633129790424,1.1402851562701164,0.6068701342906803,-0.9089060386952013,-1.1379498451903463,-0.19758160525551063,0.2500749223523773,0.3800689921557903,-0.6318823374070227,1.2503957824140786,1.5647805885210633,0.3626885990921408,-0.5390731208063662,-0.8723905909202992,0.3040134332888759,0.8259967962749302,0.6741220080476253,0.10671436216863803,-0.5510932289458811,0.11140056548980064,0.7457288621436804,0.5318746241370216,-0.0737831889215624,0.07385891647231764,-0.10994427486741915,0.2700250928387977,1.0004692738227545,0.9699842653185129,0.7017202821344137,-0.029517254884052088,-0.5867771943327039,-0.5881442814348266,0.1750686533426866,1.8584654286876319,0.929397330320999,-0.08872486989647149,-1.4122951941147446,0.1270992342778947,0.5305057104039937,1.0047702589523047,0.038198489507997875,-0.11241748744738288,0.3343905061729252,-0.011812737582705448,-0.49405054144896565,-0.2668058567976579,1.0061797604240477,1.2724895408004522,1.0414388514623045,0.3240163386095315,0.024277742228796705,0.8996935353223234,-0.18452526766974478,-0.7080445897851139,-0.42542317808773367,0.7417807821050286,0.9117317636404186,0.5535881510341539,0.2661604715662077,0.6152647454094141,1.267460022200644,1.3422069278880953,0.25951301464205606,-0.32049006417952475,-0.7162417786356061,-0.40263825909942386,1.0446003842331468,0.6286303498737513,-0.75916943154037,-0.31107378186285495,1.0681180379427968,-0.016220391107257454,-0.6665463851615786,-1.161283009178564,-0.9149017719786614,0.5203593237144872,0.8075434402175247,0.10729394302172586,-0.1611586032707244,0.5061808684973046,0.4652712043514475,0.770566439345479,0.5666173996835947,0.8849973398413509,0.5686885799344629,0.5525868650371208,0.4852942574109882,0.6354487246517092,0.9432669387847185,0.8822486256550996,0.29734438558742404,-0.19520333181684835,0.49950825886558736,0.49950825886558736,0.3209884421557188,0.5577707339484245,1.4830265805505216,1.288943685864657,0.427385929528065,-1.1031807296261191,-0.7136570959046482,0.7411485486160964,0.95360084740296,0.6518030626032502,-0.03274959700193721,0.1240643052950967,0.349874892889522,0.07013346164182294,-0.18593898865887895,0.413032665733248,0.6572847819499671,0.5256725911591201,-0.07586975397123023,-0.1351721574279014,0.20536613991819322,0.2921213171768933,0.7418260094862431,0.5078148994399234,0.18199089035391808,-0.4954708565756678,-0.7435656196951865,0.24503424303773788,0.5650629002505912,-0.5368587692251429,-0.6577793605338782,-0.16626084004687144,1.532846696382761,1.0141559269350022,-0.43420726344808935,-0.11666912614302709,0.7587601200871169,0.83418689779751,0.42500199353359636,0.7969453277051448,1.4612600082919,1.1382025047771631,0.8419283787697553,-0.2762974876391701,0.29436166171589867,0.6389031759545206,0.5939385007968172,0.7784088964741677,-0.07697253671451472,0.09801615586029365,0.05802818683634978,1.0619616342049092,1.4008252672038972,-0.40038401389922945,-1.3775656799085438,-1.5768294843636452,0.7597532958429306,1.8449862077809869,-0.18882948593599722,-0.9811777133755385,0.12149478360065258,2.074417917615175,1.3758392945073543,0.3529857549190521,-1.1744872125361114,-1.1818871135290712,0.2214578631444834,0.7035152027271687,-0.4243905471043661,-1.2746062406934797,-1.4081005189038813,0.007244345675889053,0.9421637267831713,0.16697775614457203,-1.1372208002634345,-0.0936388723578304,0.8103835590142756,1.6357245947942136,1.0645998006887734,-0.8940843171384185,-1.4485906424634158,0.847879907585308,1.2999978715814648,0.15216516774231567,-0.7030213547956198,0.5359252877673134,0.7125508882284164,0.28571994396829975,-2.7365859415620566,-2.5891668906345964,0.687260379627347,1.951209324967116,1.641973426055908,1.0119834782667458,-0.0531355605231598,-0.3384725513221696,0.34687768383491785,1.5029361267656087,1.7051906374692916,0.3371144147114828,-0.5777804526023567,-0.2658558625964448,0.3582847746426239,-0.5947498537123203,-1.410483468517661,0.18506658973852172,0.9775720900990068,1.0898179747059942,0.1465444874494802,-0.7239143590901047,-0.5398121756706387,0.9311725963652133,1.7997827919639646,0.3189994968282059,-1.26848381229043,-1.539867242669314,0.9874311477471143,1.1963527881897986,-0.09932508303439244,-3.076506755463779,-2.317910301505774,0.26618264686539767,0.6332393049739301,1.0899906278591602,0.713891635312885,0.7233812751267105,0.5957866128815338,0.7460442117031664,0.27738435129411515,-0.15925757368868215,-0.5253020042810589,-0.6091962756833061,-0.8436164779871702,-0.7898633335549384,-1.504549553311616,-1.111904645764455,-0.729663058809936,-0.5252430041028187,0.48223165496997533,0.9580245090641081,0.8376254208788275,-0.05919266860503703,-0.31807127606738356,0.5388016469212249,0.035588733984576536,-0.7560452351052314,-0.6342687210869044,-0.2459895710011944,-0.16590870214095338,-0.16570404641432687,-0.21146272149393333,-0.12286343247219919,-0.1641215812621638,-0.4271565412189811,-0.37560196627695114,-0.23711101229041814,-0.2907941419600509,0.3248126035537571,0.23009574496718121,-0.41924207830000665,0.027217814268684012,0.15793184151025488,0.07725204777563921,-0.052310882335202764,-0.44633580039814114,-1.191171659224853,-1.1920052605047822,-0.8390778116442262,-0.45168607538491484,-0.14316630712011827,-0.693709409636259,-1.3592550933226941,-1.2617946899153292,-0.9190523157868534,0.1506745090594515,-0.6554390810180455,-0.6547371432937681,-0.7416341401759534,-0.1853575355091132,0.24101859592190011,-0.3755240056699142,-0.7975630212120711,-0.2818534595321864,-0.6194516757052392,-0.7411812087766826,-0.48727954947669055,-0.5296205615999177,-0.21950952382199465,-0.636826296615228,-0.8524537183068692,-1.0446567905955015,-0.37494109121542424,0.2234681069883518,-0.08977817834168672,-0.47463444130662824,-0.49034828939754516,-0.2491861750854179,-0.04754171800490003,-0.8598967277891933,-1.29112468316555,-1.435895119280368,-1.1191388348016886,-0.06207554883128032,-0.49534642647840077,-0.3057477645345032,-0.12767233972442335,-0.24938292150022462,-0.17096828708546236,-0.36052214177325365,-0.7588726405508815,-0.7184097703244536,-0.6645241586189716,-0.6168293643776327,0.0730763421267271,0.04697329786664341,0.32747791377287355,0.2101537760535255,0.0565199331312906

Rotation alpha :
6.043675179172438,6.04843290280812,6.047969081397016,6.0464260214250976,6.0479549533386745,6.052867680094048,6.057658717978218,6.05530082004512,6.049734126127491,6.045602967814732,6.0439317578477345,6.0446178017020795,6.045978448047762,6.04622882468138,6.044028064306246,6.0407280453011705,6.0382085324756485,6.036824870353613,6.037092398718752,6.038011690932923,6.0376753432577175,6.035691631814441,6.033004280254326,6.031844915069784,6.032920745800595,6.0330313292147775,6.031454886865308,6.028891009427445,6.027219859673207,6.0268502681147575,6.028055348723787,6.029565522988814,6.030170611461744,6.029884906595079,6.029662614628941,6.029858436761512,6.030279883702927,6.030978612575321,6.030924663486,6.029938262907771,6.028551770007291,6.027975662413173,6.02868218452052,6.030047714871722,6.031458978106164,6.031996407068064,6.031532219827353,6.030560366378938,6.0301628446651305,6.030911409576173,6.032550730902416,6.0324906314026485,6.028090013167657,6.026267101734795,6.025714398730495,6.02664058121165,6.028511491338002,6.030103757669502,6.029960081821304,6.0278592238235795,6.025194764799893,6.023593554969336,6.023351070615,6.023517047833943,6.0229397535148586,6.02146082318005,6.018545151647132,6.018383928681218,6.019309140226824,6.020419295938947,6.02151888257452,6.022402031498975,6.0234805634383655,6.025830322220572,6.0298595061267815,6.03439539667822,6.038423432088331,6.040564784676836,6.040937703457208,6.0406302448318465,6.040422150195576,6.04121475306846,6.041050278951575,6.040327829003251,6.0392004066222515,6.038727334656259,6.039707480003972,6.041393480726298,6.042587725925307,6.041946646080179,6.04032096480655,6.0393007843208,6.039589796410554,6.04078109407169,6.04116155541541,6.040077335744248,6.039322057806998,6.039253667613527,6.040423047853695,6.041859098324845,6.043073536238173,6.043355792480458,6.043287108373166,6.043296150804736,6.043920497935358,6.045078191069527,6.0458110368376206,6.045844284322948,6.044771503127988,6.043781348454916,6.0448918386552695,6.04580570928422,6.0451175302096,6.043287442485417,6.042143075829157,6.042252113056951,6.043122860265952,6.043342519531759,6.042042928801199,6.04022083390853,6.0391228207748755,6.038757174164891,6.0392100869096765,6.039443105364611,6.037985435614654,6.0366448821526735,6.035777518883647,6.035911899727636,6.0362928786966465,6.036420827709635,6.035915219012213,6.034985152132056,6.035104463018351,6.035996108427498,6.036987988146186,6.037306507691923,6.036999576481215,6.036856903870978,6.038448892654949,6.039800983528661,6.040949137140058,6.041388189911872,6.041769708397732,6.043283589834199,6.045850646773441,6.04871659611721,6.050891808823118,6.051784050052632,6.05173571128855,6.051535117769793,6.05375610015603,6.056139772095654,6.057886745847459,6.056965817780297,6.058301658202495,6.06099493796177,6.064408263432482,6.06621147217614,6.065669806227927,6.064895141641034,6.065627001865792,6.067657268684659,6.069748718282253,6.070663185825624,6.070966242939541,6.071730310917444,6.072977910444456,6.074328810145417,6.073663455917897,6.073935263539713,6.076698456274426,6.08127849833571,6.084539418227376,6.084201043281691,6.084564893205128,6.086453201948375,6.091117267314395,6.095464532303209,6.098095566783334,6.098542962540892,6.099373829186842,6.102892886540737,6.109431971534075,6.1120811978253595,6.113991456838115,6.11557586809488,6.1176122282157355,6.118453057437384,6.120362202982293,6.122465556198787,6.122596480905647,6.123663213218469,6.126284745759625,6.131112480308984,6.1359987330385035,6.146145203867581,6.179029021694905,6.197193841057536,6.211804220818531,6.221710209929588,6.231896986387997,6.24533202314018,6.260704654064629,6.2743565492649385,0.00021998512738794878,0.009121566463452494,0.023295867038329383,0.04476602290172859,0.06320809740300254,0.07403700135257611,0.10617125593271291,0.13568058582278342,0.17167759215317366,0.21492692684000517,0.25742469225123,0.2904748184731345,0.32170620499294456,0.35899381726504276,0.42192824723176403,0.5244730952046828,0.66988241076869,0.8246560999004152,0.9401307785792598,1.0570617711599373,1.2670552937066681,4.9643175569669635,5.1604572274810625,5.301389335717457,5.401561801040092,5.475815593428493,5.531236380834119,5.577056326514974,5.622655303103104,5.662577139572783,5.686382973139692,5.700407747726803,5.713595960785036,5.726587959561655,5.739078357900724,5.753230486714746,5.758752331828182,5.764946474268227,5.7691815347293405,5.769850782302854,5.770726894537346,5.774800363845258,5.780048101193286,5.782346318881949,5.783712019152195,5.785843154891389,5.7900215161075,5.794755761153391,5.799101597064584,5.800636674158787,5.804648884273401,5.809324067403007,5.811537219429113,5.814388486457241,5.820023603470792,5.826984891768985,5.83264320294075,5.833114434267843,5.830149928899738,5.828953349533744,5.830997739560227,5.835364071907934,5.839244987227526,5.839885972233891,5.841190497203768,5.845181729908227,5.849387040304747,5.850821673083496,5.850089176685794,5.848985321989078,5.850348918518179,5.852463865589401,5.853430864103074,5.852845804881725,5.851946148356692,5.851829950141871,5.852497516197436,5.852497516197436,5.849868701635742,5.85191945684394,5.857827351023383,5.8638149423625805,5.866452136151985,5.866597615574649,5.8668130651426145,5.867977123571929,5.869294153873466,5.869553889724528,5.870335470781145,5.873185296134019,5.877097846535019,5.879713348675401,5.881031085916555,5.881898927072149,5.883581266785181,5.884250832365536,5.884186186668881,5.883760201074974,5.883577824396801,5.884053695812042,5.884746563449928,5.88628818856544,5.887703781297943,5.888432366914264,5.889079274608269,5.891176732883726,5.892338451029018,5.894449921404601,5.894245696873871,5.895742162168711,5.897672422031184,5.899466874633033,5.902651231555089,5.903439703483784,5.903025636131454,5.901694241683772,5.8993712702536145,5.89771316240447,5.897316544597982,5.897944476005962,5.898885872048676,5.899538680336589,5.898723785254401,5.899741253741622,5.901137606864422,5.900789176899238,5.902030193290492,5.90514879530658,5.909931925020502,5.912851392934583,5.912394917080771,5.910799149653389,5.910559068750028,5.910775727718557,5.911300406310924,5.911173051255075,5.908877648406355,5.907115973011067,5.906263279387351,5.905203679503327,5.903157324889558,5.900725323152252,5.898739214889276,5.897487964188866,5.895062572324694,5.890002368051806,5.884367898231964,5.881110111600702,5.879713656728436,5.8769960824102,5.86859432929517,5.867877762493651,5.867739263963764,5.865930040426154,5.863255994918398,5.8619191497500855,5.862306613373696,5.862877062032771,5.862440491846475,5.861812037863284,5.85968040110007,5.8561646604062325,5.85354640899086,5.851664550403011,5.8498010162900425,5.842406161184922,5.835262044983437,5.828235047196373,5.821725875283283,5.81550002526718,5.809317726135339,5.804486809877502,5.800837704685269,5.798974074567288,5.798962205517012,5.799746334907108,5.799571033395612,5.800626836503714,5.803038159854106,5.806224460061328,5.80493492624158,5.802275728931075,5.80209934604269,5.802834680140718,5.803939412922929,5.8052367209127285,5.806087816389791,5.807072573039304,5.8106552633933015,5.817083190340505,5.823358681006402,5.827471512838411,5.829938309959902,5.834983286385712,5.837814993519256,5.839239987541126,5.837866397892445,5.835413817630374,5.834494919778567,5.833569188793141,5.832449555184705,5.830380579810335,5.82768836503944,5.82603606433778,5.82609981306733,5.827351143301216,5.828425779257776,5.829980485522567,5.831407019514913,5.833359070655054,5.835461375577253,5.835828349539148,5.83630497739508,5.837116035190695,5.838334208751745,5.839687435660067,5.8399401270243,5.839021026460617,5.838460831947738,5.838591051726823,5.839632336882332,5.838907988436377,5.8370335452994775,5.8361038491349015,5.835984084475557,5.834946539093519,5.833254659492895,5.832018677599248,5.832019251584696,5.833408040890317,5.834802508184972,5.83551032536488,5.836454506627951,5.8385648818518705,5.8422508702369305,5.846315515695742,5.84900030445853,5.8542354119685704,5.857558338371316,5.860235023168338,5.8618331381120825,5.862338133496294,5.861725211797911,5.8614153590111835,5.862003355190619,5.863346356133826,5.864354750668364,5.863967886948074,5.863229856380672,5.862864707601688,5.863736341259344,5.865379052500453,5.863243030102961,5.86203234392764,5.861948456318706,5.862866943414858,5.863470904292066,5.861836149848996,5.859258491960541,5.859987027566068,5.860358362583402,5.859427961550508,5.857801258516602,5.8562004247455715,5.855642705975768,5.857439632519803,5.858652299335744,5.857969608498758,5.856591101871335,5.856712427335887,5.857557340576467,5.857993673017722,5.858109326844102,5.858069948121214,5.857807449619762,5.858273792688603,5.858360303107967,5.85739628098372,5.856107258032134,5.855665485872526,5.857302781620196,5.857942973591052,5.858290165496118,5.857707077754646,5.857307016780813,5.857990555048326,5.8574790671598,5.856045496552658,5.848990525861875,5.84672831252423,5.845879434314061,5.851580806009586,5.851323487826944,5.845996991314347,5.844531403119523,5.847741662106422

Rotation beta :
-0.15342026219838648,-0.1572166272741012,-0.14990760728925903,-0.1401747617172502,-0.13109455264492031,-0.1253508327088328,-0.1220961407482588,-0.11533961796685563,-0.10969829096285795,-0.10232168863717497,-0.09619757076682475,-0.0931733696288809,-0.09301842691283743,-0.09343946335723442,-0.09305971431542744,-0.09098889598369687,-0.08710380997546169,-0.08272814456652398,-0.07935378515252044,-0.07767182269452018,-0.075841175413379,-0.07297553654442379,-0.06915098133319061,-0.06230356716727351,-0.062414545901436934,-0.06429252564283547,-0.06592667629024734,-0.06656779079405903,-0.0653713387707721,-0.06491617245107457,-0.06642610226946549,-0.06937486519767101,-0.07203798753376277,-0.07366319976274689,-0.07352173481174504,-0.07234583659120816,-0.06963165349969933,-0.06521594586426957,-0.0629312641139482,-0.05857176312011775,-0.05148807110989391,-0.03879885625246901,-0.021621883260693107,-0.004565698391740083,0.007666815088955408,0.01638468845863601,0.027020048822749148,0.04030209384881248,0.05103422543670051,0.0540132074267144,0.05173601543548896,0.04923789823810646,0.03984457514082423,0.0356033887904191,0.028411280327703743,0.02191418329560416,0.01462739220029292,0.008024212939166714,0.002420777670177803,-0.0011068429172674242,-0.0021751599641383615,-0.002376653704987266,-0.0025375062758102866,-0.0029962155462628314,-0.003807108263855599,-0.0046768932872631105,-0.00450012710645636,-0.001977354606666434,0.0020805869761422163,0.007762119460205547,0.013297685203513926,0.019660220194154743,0.028612952541106997,0.04029149673299092,0.05228027221323675,0.06254721402658311,0.06998715145106141,0.07521121751757945,0.07990086441668534,0.08602676083871179,0.09161427729840815,0.10281329821639562,0.10734609743545578,0.11153320269203587,0.11499559493460818,0.11926340251899198,0.12495817274389395,0.13119937371683926,0.13692761806757836,0.14255728911652113,0.14879543476133403,0.15540057849798722,0.16192647194781573,0.16867810137111444,0.1780592925116821,0.18228487213022918,0.18748933467013032,0.19439028964226426,0.20049222188596744,0.20590201534218722,0.20971145380177103,0.2122791672776657,0.21533529322125095,0.21834473383598718,0.22155295385781135,0.22543539070680088,0.23019890654920697,0.23630159975121298,0.24338226471817018,0.25752060931066534,0.26401158719867907,0.2708001907039233,0.2794796990422715,0.2911551408007464,0.3027610256141659,0.31487146114491427,0.3260644648459869,0.33571164288905786,0.3465470147088351,0.35601639015530906,0.3659770882703633,0.374174749601654,0.383162817583106,0.39460307802974687,0.4151218261081819,0.4250518814660567,0.43333764031900746,0.4418043950787159,0.4508619681755792,0.46264020491183644,0.47616754963997726,0.48841908747364043,0.5006862220976991,0.5125460831139226,0.5257136348580662,0.5388640438828803,0.550698000399057,0.5611790473569956,0.5795854724500404,0.5869646247400797,0.5954906558206833,0.6047802001444145,0.6143176222115198,0.6203872477391705,0.6253347264217071,0.6309713323741653,0.6371748772885606,0.6450793199118743,0.6528239330687514,0.6603882259717815,0.6660311901040757,0.6749369938980648,0.691070361529577,0.6989765253368613,0.7071525079075762,0.7140349718844413,0.7216366174788844,0.7293813532423751,0.7396634984822553,0.7521760787688958,0.7611237117821077,0.7701766490839118,0.7807475518439696,0.7934915515329531,0.8037158947320006,0.8138773592043089,0.8259577323272222,0.8549498358423213,0.8716187559590716,0.8848877220098827,0.8964900186236371,0.9071697401062757,0.9207276627291154,0.9370175513555979,0.9531431688998171,0.9649766437329492,0.9755748940614908,0.9867199174535848,0.9990037491200531,1.0113969411933934,1.02224407071234,1.0314623538718755,1.0536508265815536,1.0672452351019615,1.0788682678172055,1.0878830039007379,1.09639584588396,1.1057232400739008,1.1164844439665582,1.1281956168078011,1.1357726980868783,1.1427693802567769,1.150183658837576,1.163086282676917,1.1762985600555518,1.1882300852310477,1.2135591663053995,1.2284774069719693,1.2404791728974338,1.249700789092365,1.2593555818192268,1.2713023047339387,1.2850742148246466,1.2989669912523256,1.3098897367117366,1.3198857790813199,1.332390974115814,1.3456904328949892,1.3577807721300377,1.3677736449078242,1.3875949266248486,1.4000998312080077,1.412487870325078,1.425168691119379,1.4369423647770636,1.446656726425763,1.4548314490476193,1.4630863796371743,1.472243626867668,1.483139563272997,1.4933646651932824,1.5012872473743994,1.5069238809856194,1.5110413841499761,1.5133745983456262,1.6388567670944747,1.649397952260406,1.65898951539618,1.6687248861532178,1.680955299264034,1.6945891024061515,1.7083468186747413,1.7233315223478671,1.739792985381629,1.7556835137068658,1.7692855406471961,1.7802144816973753,1.7893199439903582,1.7983924998480296,1.8146501329681781,1.821763282067097,1.830612437786726,1.841734588173915,1.8539519817599963,1.8642245782368696,1.87290265086947,1.8811740176588487,1.8892464945790652,1.896068251948344,1.9005455533556166,1.9034425072774286,1.90758203291459,1.914722424216506,1.9246033818313166,1.941797493927551,1.947310371159283,1.9538678255206783,1.9635688200638994,1.9727661897201398,1.98008253832813,1.9885445733070541,2.000485661367164,2.015935634606972,2.0323041693993096,2.046250568970241,2.058098323459662,2.0703281045150526,2.096887307649827,2.1088423729668806,2.1191979389208724,2.128279437591195,2.136685567938092,2.1447143703117106,2.1526502047352785,2.160226414686437,2.1671319527514443,2.173079415712008,2.1781774644417675,2.182836471305962,2.188232734267058,2.202386373548109,2.202386373548109,2.2160893744016024,2.2218184418913385,2.2246540564371564,2.2244319391107763,2.223897611928106,2.2264651985230532,2.2327435751999403,2.2398125961228335,2.2452563199992,2.249024655486035,2.252550655562919,2.256461377938223,2.2598486627902754,2.2633053859687022,2.268099531265903,2.2802759599813087,2.286143175169654,2.2916074853864856,2.2975669073461087,2.304630091575855,2.3119529125920595,2.3192413923995177,2.326470219917993,2.3327582524223827,2.3386274171850476,2.3450122008570835,2.3529481185486083,2.3620426493858586,2.3707646685538544,2.388733473109391,2.399255994014784,2.4119924898073504,2.4240676034103124,2.431591747311267,2.4382295845793918,2.447450788130161,2.4585678948275835,2.468361900864061,2.4776841679619386,2.4864724845609514,2.4928226602350065,2.496645834762398,2.4993375935362785,2.5023682295939893,2.5134210729517608,2.5191561851896807,2.525246626503908,2.5309062839375893,2.5370167575023794,2.5429172552990407,2.5479646894297687,2.5530733695947765,2.557382436516779,2.5601836982149213,2.5646947483038476,2.5729091691115547,2.5841103251380746,2.5942061592443557,2.6095063361026645,2.620238228449796,2.6325482233718067,2.6426011541388923,2.6493894616411,2.6547985299397734,2.6620242915412025,2.672308554019503,2.684997167958673,2.6980359532096934,2.710886743776327,2.7241974481786877,2.739343778072544,2.7569637686624384,2.7899291904741736,2.8021727299009833,2.815229145101619,2.8315996261222716,2.848714268613994,2.861984369603804,2.8711199008617205,2.879586927709838,2.8918472635869934,2.9062274347868002,2.9185122748766226,2.9295571777301705,2.9423756096880997,2.955852321079082,2.967081615193924,2.9879429245178333,3.0018021171423563,3.022757958100593,3.047016602749712,3.0681565514167626,3.084662952614448,3.098703624611793,3.111834052241658,3.1254405678623574,3.1386595336935867,-3.1332790401924075,-3.1248023140748855,-3.119215674649761,-3.113445682236939,-3.0930387504121906,-3.07936126091901,-3.066102548410981,-3.052618963147639,-3.0385450829265253,-3.0266914713202646,-3.0171751851449233,-3.0090401219841985,-3.0004774170964184,-2.9903506371511837,-2.9821701668011134,-2.9781347637775575,-2.97603483501874,-2.972406297388831,-2.948277898513084,-2.9336868591604057,-2.921708559158271,-2.9107845523360854,-2.8968064341496205,-2.876252055397366,-2.853168930953224,-2.8318094643007274,-2.812911487392509,-2.7966402870017335,-2.782824025157468,-2.771835383469027,-2.7631538395706325,-2.7563618565968677,-2.7424370280978234,-2.735488624553394,-2.7282105572383615,-2.7200892177540394,-2.709608137875283,-2.6978396457737173,-2.6845156003601867,-2.6708123595676256,-2.6573673354802203,-2.643899233655026,-2.6318402767334224,-2.6230667860896215,-2.6170121557942467,-2.611502658763909,-2.5975459523286686,-2.591225570055653,-2.585159895484153,-2.5780699923548305,-2.5700354992440495,-2.5614211672275173,-2.553438519604318,-2.5468282163378273,-2.541529659519284,-2.5367092492369476,-2.531157939250263,-2.5245969605082172,-2.518314917237511,-2.512398238672468,-2.5074980607085022,-2.5039332633116946,-2.49681521344137,-2.4935441580801854,-2.4913092307604012,-2.490041259497322,-2.4891235702528416,-2.4881020969599006,-2.4865619890388513,-2.483830486774538,-2.4799296683128524,-2.475327759036252,-2.4704604456930883,-2.4663055378506886,-2.4608813521739834,-2.4544908916177572,-2.4470037501609125,-2.4322902879317656,-2.427286695838379,-2.4224243976721858,-2.4176714991794253,-2.411809021769827,-2.405641479975407,-2.4010105071013648,-2.398042122340829,-2.3950410376995115,-2.3915220207623213,-2.3867450435146016,-2.3811980091496814,-2.376122976255995,-2.37177686824269,-2.3663949380648317,-2.362820931652009,-2.3576589575020277,-2.3519941966420514,-2.3476025336378896,-2.345632800151959,-2.344783184634496,-2.343391069193004,-2.3415624253717326,-2.3408164527763606,-2.3406586229852655,-2.3394405137432086,-2.3357366105683925,-2.33045003854473,-2.3217868380293467,-2.3188780418105988,-2.315604891635643,-2.31166030421067,-2.3082720681238578,-2.305580744867916,-2.303533530630633,-2.301433977744206,-2.2775719194228046,-2.2736378619626154,-2.2699583828963656,-2.258039626676483,-2.255572277997273,-2.254689777693722,-2.2542323016660464,-2.2485952289045987

Rotation gamma :
-0.06128078139559721,-0.06923218531837372,-0.07703562865862772,-0.08385483319276775,-0.08560596253664857,-0.08145008509389627,-0.07520156048652706,-0.06727033361713013,-0.06376798672183469,-0.05961768293734097,-0.0536337052826552,-0.045594869005136845,-0.038001344049390554,-0.0334620654717131,-0.032977077000149575,-0.03298741058330513,-0.03136371529617041,-0.027596122592152165,-0.022166267968544918,-0.017476335784054935,-0.014701535436881453,-0.014890106657667967,-0.013043680602713523,-0.003540623649954612,0.00010182196129095524,0.003571880674926174,0.0039208525550271395,0.005446796345275432,0.009461870764834256,0.011298141182182479,0.013568206405566165,0.01658966838408199,0.01763328923434612,0.01778195308435043,0.016947593138852364,0.016013753486438933,0.01548174290932872,0.012982512543443906,0.011850205941630205,0.009501569322363367,0.00793037106356864,0.007209128869510828,0.0062179405301491675,0.00474369592664282,0.003135452891806328,0.001232831569204497,-0.0033194444454389314,-0.009225640469166865,-0.012644809362515429,-0.011772103775345221,-0.009486861026635478,-0.011587232936009976,-0.014609231071301819,-0.014376056191550123,-0.013518193608700399,-0.010074053591389022,-0.008585494756104794,-0.007834450827629217,-0.010424810134836534,-0.011395081518726145,-0.012228726040245165,-0.012718256661367574,-0.011568125925273447,-0.010120650632160909,-0.009654794685712613,-0.010277555385442484,-0.012080950641764478,-0.011650125403935015,-0.010492851985171681,-0.011112907485630692,-0.011452734217063528,-0.012999992019587892,-0.014800393305513703,-0.016569113776862935,-0.01782469225429658,-0.01795468141285907,-0.01829761920011678,-0.017931290584781146,-0.017420421388733922,-0.0183502118391709,-0.01805247397819574,-0.017526542464073164,-0.01753847922812124,-0.018910145867704717,-0.018553126626445954,-0.01664110841629939,-0.016618834407255006,-0.016504641787074087,-0.01789442959285855,-0.01955220837840885,-0.021716831289606518,-0.024080076426013827,-0.024948314227303297,-0.023953372345331164,-0.025173371630985313,-0.026196853365322355,-0.028009576702065126,-0.028005308621147647,-0.02998076140402043,-0.030934975703455284,-0.03210417922767921,-0.03351289152963768,-0.03499804120166902,-0.03510313347792207,-0.033834073236245835,-0.03190110013506198,-0.031891056834485496,-0.03496151859248068,-0.03635932844798987,-0.03493382409381412,-0.032953932337669495,-0.032608107432980225,-0.03232365998192147,-0.03184761681256414,-0.03316647961908934,-0.03249397431490017,-0.03261861616044336,-0.03487766164707792,-0.03646627361288664,-0.03814242119095575,-0.0367415887747213,-0.03460262589404508,-0.03319294098408935,-0.03182716793995286,-0.032742475942791255,-0.03087581823316015,-0.029084315362953746,-0.027187493300305555,-0.025142530748080153,-0.0224340447658668,-0.02091967569597235,-0.020078207671095916,-0.01831894708277255,-0.016720918560353258,-0.015836349635824292,-0.01706692310846611,-0.018293314181307613,-0.01879123309043823,-0.01610257003314389,-0.015153304683661564,-0.015066077880283748,-0.015775010324535814,-0.015576017226881685,-0.014339914955595327,-0.012680322216811393,-0.012353346791935045,-0.014268066180710175,-0.016051609017750195,-0.015333207992567533,-0.01220243199031552,-0.011877563771270222,-0.011910273833158217,-0.017575782097273784,-0.017049594900098986,-0.01612988390422037,-0.017217895540465645,-0.018654156408325365,-0.022578759572926512,-0.026646344318594986,-0.028304339511262704,-0.02929635957539454,-0.02885890782856353,-0.031370149641888063,-0.03414164569535819,-0.03721678909296448,-0.037080455184147175,-0.03617677524835609,-0.0465121617288107,-0.05226726313904065,-0.05427316997815308,-0.053291324280048236,-0.05529306182462428,-0.06167220407578925,-0.06972590439625997,-0.0747613132172955,-0.07676372722567229,-0.07963550544899968,-0.08484020366334961,-0.09073808585024887,-0.09240835462004764,-0.09304355660328632,-0.09489153602796063,-0.1041623089815754,-0.11182294679839294,-0.11784882009289398,-0.12004228068244803,-0.1205837613497919,-0.12138946852834717,-0.1262449652349493,-0.12981398031717295,-0.12726369180509411,-0.12595845431511388,-0.12812734396777112,-0.13571942408395915,-0.14330678565114158,-0.15513839788761644,-0.1971314986177167,-0.22356300764481377,-0.24192555833024407,-0.2505450538845177,-0.2599578544349695,-0.2740508116295403,-0.2927118357298255,-0.30743837500782917,-0.3124317811007309,-0.3163658919043289,-0.32766354823627086,-0.3479853556779209,-0.3641051696707181,-0.36841236869753574,-0.3886294929330382,-0.4169927681965295,-0.4524008768436134,-0.4939169249908265,-0.5345582944690366,-0.5648592654687904,-0.5936487452861299,-0.6271042283303765,-0.6867159095405024,-0.788439087588417,-0.9373042591135621,-1.096508409427185,-1.2119736362919165,-1.3266498944587761,-1.5381150184249395,1.0338977419367568,0.8302990921002974,0.6866140534603177,0.5859492624298797,0.5087682797584555,0.448932633164831,0.39966067676427086,0.35217937302084507,0.310384740405918,0.2838086389480507,0.2675413695607013,0.2548562097949982,0.24544198111788446,0.2359010048705358,0.22639219239835087,0.22441498369987223,0.2221279426631858,0.21894978490957817,0.21742611344778118,0.21668940834167233,0.21515166380462217,0.2147085422607852,0.21665518264579708,0.21813737904402478,0.2200374433441531,0.22148173072714764,0.2223045259012772,0.22035003145275636,0.21701818894837252,0.2077413851522977,0.20434723466725094,0.20281581946440158,0.19740055079728838,0.18904810978206724,0.18076777147589565,0.1749304708312983,0.17350255239223167,0.17100908796010353,0.16483411325161879,0.15960203508475304,0.15812501906980594,0.1583393122317213,0.15666893471246068,0.15561826796855993,0.15602837297676342,0.15812428238405932,0.16029940129867462,0.1621382058757416,0.16475092264221758,0.1679776586167795,0.1723884580033893,0.1773678253218482,0.1819682175168921,0.18565565754039173,0.18853715329141757,0.19340836638612804,0.19340836638612804,0.19468237769465327,0.19298732493160042,0.19051723643364551,0.1890051692191569,0.18887967434676436,0.18856546503197535,0.18746254951932972,0.18709636181086936,0.18724815462479383,0.1882089083803599,0.18740124619978463,0.18429293523045598,0.18201665457488503,0.1813899461006875,0.18060972739827197,0.17484714030876183,0.17117792496478412,0.1706614121543063,0.1713897680556441,0.1702481892885982,0.16644762055745954,0.16276657402839556,0.16120609316938964,0.16207204631438732,0.16402673636617682,0.16518826531279593,0.1640505032268732,0.16138536239505866,0.16224768651954694,0.1631805041017943,0.16299270072457805,0.1596323600368629,0.15577343108566274,0.15727112282455571,0.1578878032494019,0.15926423120426594,0.1617791077908072,0.16459806180619782,0.16834845793476175,0.17125685947979422,0.17484870278283196,0.1780866481812741,0.18056942501796916,0.18235059455424688,0.1874192475122728,0.1887910320067424,0.18929953947202552,0.18994345482374855,0.1892708226689087,0.1901886091653028,0.1930059005532,0.19700155075243556,0.20151153918571799,0.20618817344350546,0.20954540922321133,0.21468431648960054,0.21950909772324825,0.22311366841990854,0.2285633740578491,0.231054721309668,0.2325667479943211,0.23359233174470184,0.2343651522297604,0.23418518109013112,0.2354557736974231,0.23844021238746219,0.23988560184512334,0.23900176432511894,0.23692270427368023,0.23578672771764903,0.2368099381250858,0.2362348452023301,0.22049478292964478,0.21172361868676343,0.2086081028906152,0.20755412734294212,0.20382907706524658,0.19575530520840995,0.1870806270100515,0.18059302521163337,0.17904234529474797,0.18015046075388075,0.18295753662358216,0.18516448126190857,0.18368244342826945,0.18493251958550178,0.19032756958179733,0.19626388334494319,0.19742463563917192,0.19912752325913244,0.20301984792267735,0.20764165982778385,0.21024870047864408,0.21067202706603153,0.21129663639063226,0.21605784749811285,0.22182855234484855,0.22580146702725581,0.2287700838739949,0.2308752544426064,0.2321811978573139,0.2328861061660429,0.23020312072449045,0.22857713527856807,0.22714692753490134,0.22922300543071797,0.23323688432650347,0.23665114799403422,0.23938500653749106,0.2435436138305881,0.250830005164303,0.2604242870507477,0.26868563064690737,0.27189974378042575,0.2722446075521804,0.2776202008246794,0.2841577053954062,0.28832390670017066,0.28864705260929313,0.28738412767271904,0.2870287035581344,0.2911271230710698,0.29544204411829134,0.298392391731532,0.2999748460014053,0.30186029132754577,0.3046740788918362,0.3069541813156198,0.30738574868043733,0.3044468491908324,0.30530826566607605,0.30592427298271535,0.30512651384791944,0.3035029633699691,0.3016211537925396,0.3011053365735773,0.3035024405085186,0.3061263412124681,0.3071602100021745,0.30843098840559174,0.31102316938271424,0.3165362889718481,0.32302249276973877,0.3295635400796423,0.3323844302519926,0.33682570590298394,0.3417002477568186,0.3442955755169811,0.3442835566328261,0.34378225901001536,0.3453523868210913,0.3487929450791298,0.35160660189978726,0.3519405107986257,0.3509122051697338,0.35166758711395096,0.354934459727244,0.357983823945499,0.35934046961116395,0.3592525086725004,0.3599447955555976,0.3610138169268208,0.3614876629529934,0.3596926854385437,0.3558916815775671,0.3528322381924026,0.3518776091726844,0.3525765086077156,0.3510808755584149,0.346237831063213,0.33955832207831466,0.3349922017469222,0.33513670723288475,0.336776693101482,0.32928064741331575,0.3231173635807504,0.3223621844875343,0.3247407672732955,0.3256715267176193,0.3229709293205706,0.31976827267734154,0.31803508034673256,0.3174846779899882,0.3168708645838449,0.31472570293546426,0.31166570062824717,0.30898219847088415,0.3083516226407254,0.3088153822436427,0.3060915337476528,0.3027397628407026,0.3013315626946592,0.302756490175519,0.30455641206878126,0.3044914319181787,0.30212750186934356,0.30151126160200287,0.30225222941140123,0.3034353078867863,0.302953962316639,0.3018204863881359,0.3003689641050077,0.29910507678285836,0.3000312751972146,0.29885716774435406,0.2966281835523122,0.295125812070651,0.2955146354102932,0.2953521689534756,0.29432555210267364,0.28528249444854314,0.28230243942510047,0.2806596419616955,0.2873712126052702,0.28792980000990825,0.28118447134809416,0.27966653622913606,0.280751694213259